File: EXPERIMENTAL/Data/Battery-cycling/E-measurements/C-cell/2024-04-29_E-measurements_sample-Ionic-04_C-cell_Cu-Li_glassfiber-separator_25muL-ionic-electrolyte_outside-glovebox_sigma-0.02_added-OCV-0.1s_02_MB_C02.txt
time/s	Ewe/V	I/mA	error
60.053	2.73642	-0.0250311	0
60.1732	0.00929405	-8.55343	0
60.1738	0.00946585	-8.50061	0
60.1746	0.00940858	-8.4357	0
60.1754	0.00956129	-8.37206	0
60.1762	0.00940858	-8.30906	0
60.1768	0.00933223	-8.2556	0
60.1776	0.00935132	-8.19706	0
60.1784	0.00946585	-8.13469	0
60.179	0.0093895	-8.08187	0
60.1798	0.00948494	-8.02078	0
60.1806	0.00942767	-7.96096	0
60.1814	0.0093895	-7.90432	0
60.1822	0.00940858	-7.84578	0
60.183	0.00942767	-7.77768	0
60.1838	0.00940858	-7.72168	0
60.1846	0.00942767	-7.66632	0
60.1856	0.00933223	-7.5944	0
60.1864	0.00940858	-7.53777	0
60.1872	0.00933223	-7.48304	0
60.188	0.00935132	-7.42576	0
60.189	0.00935132	-7.36022	0
60.1896	0.00944676	-7.30931	0
60.1904	0.00942767	-7.25903	0
60.1914	0.00937041	-7.18967	0
60.1922	0.00929405	-7.13812	0
60.1932	0.00937041	-7.07894	0
60.194	0.00940858	-7.02612	0
60.1948	0.00940858	-6.96948	0
60.1958	0.00937041	-6.90839	0
60.1968	0.00927497	-6.84411	0
60.1976	0.0093895	-6.78365	0
60.1986	0.00942767	-6.72702	0
60.1996	0.00944676	-6.66911	0
60.2006	0.00952311	-6.6131	0
60.2014	0.00931314	-6.55837	0
60.2024	0.00940858	-6.50301	0
60.2034	0.00937041	-6.44637	0
60.2042	0.00931314	-6.39482	0
60.2054	0.00931314	-6.32801	0
60.2066	0.00931314	-6.26946	0
60.2076	0.00942767	-6.21027	0
60.2086	0.00935132	-6.15936	0
60.2096	0.00933223	-6.10654	0
60.2106	0.00933223	-6.05309	0
60.2116	0.00944676	-5.99327	0
60.2128	0.00935132	-5.93281	0
60.214	0.00946585	-5.87936	0
60.2152	0.00935132	-5.82017	0
60.2164	0.00942767	-5.75653	0
60.2178	0.0093895	-5.69544	0
60.219	0.0093895	-5.63689	0
60.2204	0.00931314	-5.57835	0
60.2216	0.00935132	-5.5268	0
60.2228	0.00937041	-5.47016	0
60.224	0.00935132	-5.4148	0
60.2254	0.00935132	-5.35434	0
60.2268	0.00944676	-5.29961	0
60.2282	0.00944676	-5.24552	0
60.2294	0.00940858	-5.19461	0
60.2306	0.00946585	-5.14434	0
60.232	0.00933223	-5.08897	0
60.2334	0.00950403	-5.0336	0
60.2348	0.00937041	-4.97633	0
60.2364	0.0093895	-4.92351	0
60.2378	0.00937041	-4.8726	0
60.2394	0.0093895	-4.80578	0
60.2412	0.00933223	-4.74978	0
60.2428	0.00931314	-4.69696	0
60.2444	0.00935132	-4.63905	0
60.246	0.00935132	-4.58686	0
60.2478	0.00944676	-4.53532	0
60.2492	0.00942767	-4.48504	0
60.2512	0.00942767	-4.42841	0
60.2528	0.00944676	-4.37431	0
60.2548	0.00933223	-4.32022	0
60.2566	0.00937041	-4.26422	0
60.2584	0.00940858	-4.21395	0
60.2602	0.0093895	-4.16303	0
60.2622	0.00940858	-4.10703	0
60.2642	0.0093895	-4.05549	0
60.2662	0.00942767	-3.99821	0
60.2686	0.0093895	-3.93776	0
60.2708	0.00946585	-3.88112	0
60.273	0.00940858	-3.95917	0
60.3032	0.00933223	-3.22963	0
60.3062	0.00940858	-3.17816	0
60.3094	0.00946585	-3.12547	0
60.3126	0.00933223	-3.0754	0
60.316	0.00952311	-3.02247	0
60.3194	0.00937041	-2.97239	0
60.323	0.00937041	-2.92226	0
60.3268	0.00935132	-2.86996	0
60.3308	0.00944676	-2.81753	0
60.335	0.00935132	-2.76631	0
60.3392	0.00944676	-2.71618	0
60.3438	0.00940858	-2.66458	0
60.3484	0.00937041	-2.61381	0
60.3534	0.00933223	-2.56265	0
60.3586	0.00946585	-2.51105	0
60.364	0.0093895	-2.46098	0
60.3698	0.00929405	-2.41053	0
60.3758	0.00931314	-2.35905	0
60.3822	0.00933223	-2.30854	0
60.3888	0.00935132	-2.25802	0
60.3958	0.00931314	-2.20769	0
60.4032	0.00937041	-2.15685	0
60.411	0.00944676	-2.10646	0
60.4194	0.00944676	-2.05569	0
60.428	0.00935132	-2.00517	0
60.4372	0.00923679	-1.95491	0
60.4468	0.00946585	-1.90477	0
60.4572	0.00946585	-1.85356	0
60.468	0.00944676	-1.80285	0
60.4794	0.00948494	-1.75258	0
60.4914	0.00940858	-1.70232	0
60.5044	0.0093895	-1.65148	0
60.5178	0.00940858	-1.60109	0
60.5324	0.00935132	-1.55077	0
60.5478	0.00940858	-1.5005	0
60.5642	0.00940858	-1.45011	0
60.5816	0.00946585	-1.40004	0
60.6006	0.00927497	-1.34971	0
60.621	0.00935132	-1.29913	0
60.643	0.00935132	-1.24906	0
60.6668	0.00944676	-1.19841	0
60.6934	0.00942767	-1.14809	0
60.722	0.00937041	-1.09738	0
60.7538	0.00931314	-1.04705	0
60.7888	0.00942767	-0.997043	0
60.8284	0.00935132	-0.946716	0
60.873	0.00946585	-0.896261	0
60.923	0.00946585	-0.845998	0
60.9822	0.00942767	-0.795798	0
61.0494	0.00935132	-0.745599	0
61.1308	0.00948494	-0.695462	0
61.2284	0.00944676	-0.645008	0
61.3458	0.00933223	-0.594936	0
61.496	0.0093895	-0.544927	0
61.6858	0.0093895	-0.494472	0
61.9372	0.00942767	-0.444336	0
62.3018	0.0093895	-0.394096	0
62.7998	0.00933223	-0.343992	0
63.554	0.00937041	-0.29392	0
64.7802	0.00933223	-0.243911	0
65.0528	0.00937041	-0.235948	0
65.0534	0.00919861	-0.23547	0
67.4836	0.00933223	-0.185436	0
72.4938	0.00940858	-0.135319	0
82.4938	0.00935132	-0.0920139	0
92.4938	0.00944676	-0.0712236	0
102.494	0.00927497	-0.0582313	0
112.494	0.00929405	-0.048982	0
122.494	0.00923679	-0.0431116	0
132.494	0.00937041	-0.0385885	0
142.494	0.00940858	-0.0350447	0
152.494	0.0093895	-0.0321844	0
162.494	0.00940858	-0.0298166	0
172.494	0.00927497	-0.027872	0
182.494	0.00933223	-0.0262455	0
192.494	0.0093895	-0.0248481	0
202.494	0.0093895	-0.0236123	0
212.494	0.00931314	-0.0225153	0
222.494	0.00933223	-0.0215067	0
232.494	0.0093895	-0.020647	0
242.494	0.00937041	-0.0198159	0
252.494	0.00935132	-0.0191071	0
262.494	0.00925588	-0.0184408	0
272.494	0.00933223	-0.0178204	0
282.494	0.00937041	-0.0172642	0
292.494	0.00925588	-0.0168436	0
302.494	0.00937041	-0.0163912	0
312.494	0.00935132	-0.0159782	0
322.494	0.00925588	-0.015534	0
332.494	0.00931314	-0.0150708	0
342.494	0.00931314	-0.0146616	0
352.494	0.00935132	-0.0143823	0
362.494	0.00937041	-0.0141004	0
372.494	0.00937041	-0.0137326	0
382.494	0.00925588	-0.0134322	0
392.494	0.00946585	-0.0131185	0
402.494	0.00944676	-0.0128449	0
412.494	0.00931314	-0.0126642	0
422.494	0.00935132	-0.0123142	0
432.494	0.0092177	-0.012157	0
442.494	0.00927497	-0.0120005	0
452.494	0.00944676	-0.0117396	0
462.494	0.00937041	-0.0114838	0
472.494	0.00944676	-0.0113559	0
482.494	0.00935132	-0.011074	0
492.494	0.00942767	-0.0109454	0
502.494	0.00933223	-0.0108583	0
512.494	0.00929405	-0.010717	0
522.494	0.00937041	-0.0104497	0
532.494	0.00933223	-0.0102957	0
542.494	0.00937041	-0.0101831	0
552.494	0.00937041	-0.0100387	0
562.494	0.00940858	-0.00992475	0
572.494	0.00933223	-0.00975421	0
582.494	0.00937041	-0.00964667	0
592.494	0.00933223	-0.00956013	0
602.494	0.00929405	-0.00940996	0
612.494	0.00927497	-0.0092636	0
622.494	0.00929405	-0.00913697	0
632.494	0.00940858	-0.00904406	0
642.494	0.00942767	-0.00894861	0
652.494	0.00933223	-0.00883344	0
662.494	0.00935132	-0.0088048	0
672.494	0.00931314	-0.00875453	0
682.494	0.00933223	-0.00858017	0
692.494	0.00931314	-0.00852227	0
702.494	0.00944676	-0.00832055	0
712.494	0.00942767	-0.0082601	0
722.494	0.00931314	-0.00824737	0
732.494	0.00940858	-0.00811501	0
742.494	0.00942767	-0.0081061	0
752.494	0.00927497	-0.0079852	0
762.494	0.00935132	-0.00788975	0
772.494	0.00937041	-0.00776885	0
782.494	0.00929405	-0.00769376	0
792.494	0.00931314	-0.00763585	0
802.494	0.0092177	-0.00753913	0
812.494	0.00944676	-0.00749968	0
822.494	0.00929405	-0.00743477	0
832.494	0.00927497	-0.00733996	0
842.494	0.0092177	-0.00730368	0
852.494	0.00929405	-0.00723496	0
862.494	0.00931314	-0.00714715	0
872.494	0.0093895	-0.00705424	0
882.494	0.00940858	-0.00702752	0
892.494	0.00937041	-0.00711342	0
902.494	0.00929405	-0.0069537	0
912.494	0.00940858	-0.00686652	0
922.494	0.00937041	-0.00684361	0
932.494	0.0093895	-0.00677425	0
942.494	0.00929405	-0.00675835	0
952.494	0.00935132	-0.00670426	0
962.494	0.00942767	-0.0066508	0
972.494	0.00935132	-0.00654454	0
982.494	0.00927497	-0.00652545	0
992.494	0.0093895	-0.00644972	0
1002.49	0.00927497	-0.00636509	0
1012.49	0.00935132	-0.00633136	0
1022.49	0.00935132	-0.00626964	0
1032.49	0.00925588	-0.0062321	0
1042.49	0.00927497	-0.00623719	0
1052.49	0.00927497	-0.00613601	0
1062.49	0.00931314	-0.00609019	0
1072.49	0.00937041	-0.00602274	0
1082.49	0.00927497	-0.00601001	0
1092.49	0.00929405	-0.0059922	0
1102.49	0.00929405	-0.00591647	0
1112.49	0.00929405	-0.00590438	0
1122.49	0.00931314	-0.00581466	0
1132.49	0.00937041	-0.00576312	0
1142.49	0.00937041	-0.00588338	0
1152.49	0.00929405	-0.00576693	0
1162.49	0.00940858	-0.0056823	0
1172.49	0.00937041	-0.00570076	0
1182.49	0.00925588	-0.00564349	0
1192.49	0.00940858	-0.00563458	0
1202.49	0.00937041	-0.00558049	0
1212.49	0.00940858	-0.00557285	0
1222.49	0.00937041	-0.00552004	0
1232.49	0.00940858	-0.00541504	0
1242.49	0.00927497	-0.00544622	0
1252.49	0.00933223	-0.00538832	0
1262.49	0.0093895	-0.00536668	0
1272.49	0.00940858	-0.00530814	0
1282.49	0.00933223	-0.00527696	0
1292.49	0.00935132	-0.00532914	0
1302.49	0.0093895	-0.0052076	0
1312.49	0.00940858	-0.00522732	0
1322.49	0.0093895	-0.00518787	0
1332.49	0.00937041	-0.0052006	0
1342.49	0.00929405	-0.0051866	0
1352.49	0.0093895	-0.00504469	0
1362.49	0.00942767	-0.00508924	0
1372.49	0.00931314	-0.00501542	0
1382.49	0.00937041	-0.00508351	0
1392.49	0.00935132	-0.00495688	0
1402.49	0.00933223	-0.00489643	0
1412.49	0.00942767	-0.0049047	0
1422.49	0.00944676	-0.00493652	0
1432.49	0.0093895	-0.00485634	0
1442.49	0.00931314	-0.00484743	0
1452.49	0.00937041	-0.00486779	0
1462.49	0.00925588	-0.00482961	0
1472.49	0.0093895	-0.00482389	0
1482.49	0.00933223	-0.00482325	0
1492.49	0.00944676	-0.00476852	0
1502.49	0.00935132	-0.00472589	0
1512.49	0.00933223	-0.00470425	0
1522.49	0.00931314	-0.00467371	0
1532.49	0.00929405	-0.00464953	0
1542.49	0.00942767	-0.00467944	0
1552.49	0.00925588	-0.00467562	0
1562.49	0.00937041	-0.00456044	0
1572.49	0.00937041	-0.00452099	0
1582.49	0.00927497	-0.00455153	0
1592.49	0.00933223	-0.00448917	0
1602.49	0.0093895	-0.0044879	0
1612.49	0.00923679	-0.00450884	0
1622.49	0.00937041	-0.00452718	0
1632.49	0.00935132	-0.00447101	0
1642.49	0.00931314	-0.0044458	0
1652.49	0.00935132	-0.00444249	0
1662.49	0.0093895	-0.00441784	0
1672.49	0.00946585	-0.00441249	0
1682.49	0.00923679	-0.00440683	0
1692.49	0.00937041	-0.00436824	0
1702.49	0.00933223	-0.00433201	0
1712.49	0.00929405	-0.0043273	0
1722.49	0.00937041	-0.00431475	0
1732.49	0.00940858	-0.00426935	0
1742.49	0.0093895	-0.00427171	0
1752.49	0.00927497	-0.00426209	0
1762.49	0.00933223	-0.00422217	0
1772.49	0.00929405	-0.00426165	0
1782.49	0.0093895	-0.00422204	0
1792.49	0.00946585	-0.00420911	0
1802.49	0.00944676	-0.00417345	0
1812.49	0.00927497	-0.00415148	0
1822.49	0.00935132	-0.00415161	0
1832.49	0.00929405	-0.00413276	0
1842.49	0.0093895	-0.00412729	0
1852.49	0.00929405	-0.00409297	0
1862.49	0.0093895	-0.00409812	0
1872.49	0.00937041	-0.00407138	0
1882.49	0.00929405	-0.00403266	0
1892.49	0.00925588	-0.00402655	0
1902.49	0.00927497	-0.00402127	0
1912.49	0.00935132	-0.00400809	0
1922.49	0.00923679	-0.00400095	0
1932.49	0.00929405	-0.00395625	0
1932.67	0.00942767	-0.00391512	0
1932.67	0.0093895	-0.00392314	0