File: EXPERIMENTAL/Data/Battery-cycling/E-measurements/C-cell/2024-04-25_E-measurements_sample-LiFSI-electrolyte-01_C-cell_Cu-Li-Cellgard2400-separator_25muL-LiFSI-in-DME_outside-glovebox_sigma-0.02_added-OCV-0.1s_04_CP_C02.txt
time/s	Ewe/V	I/mA	error
1332.43	0.00552147	-0.194577	0
1332.43	0.00111136	-0.195967	0
1332.43	-0.000696439	-0.195967	0
1332.43	-0.00199444	-0.195967	0
1332.43	-0.00331154	-0.195963	0
1332.43	-0.00438048	-0.195964	0
1332.43	-0.00543034	-0.195971	0
1332.43	-0.00667108	-0.195963	0
1332.43	-0.00774002	-0.195962	0
1332.43	-0.00894259	-0.195966	0
1332.43	-0.00999244	-0.195973	0
1332.43	-0.011195	-0.195968	0
1332.43	-0.0124357	-0.195963	0
1332.43	-0.0135238	-0.195964	0
1332.43	-0.0145736	-0.195969	0
1332.44	-0.0156235	-0.195964	0
1332.44	-0.0167497	-0.195966	0
1332.44	-0.017895	-0.195971	0
1332.44	-0.0189449	-0.195969	0
1332.44	-0.0200329	-0.195972	0
1332.44	-0.0211209	-0.195966	0
1332.44	-0.0224189	-0.195969	0
1332.44	-0.0235833	-0.195963	0
1332.44	-0.0247286	-0.195971	0
1332.44	-0.0258357	-0.195963	0
1332.45	-0.0268856	-0.195963	0
1332.45	-0.0279927	-0.19597	0
1332.45	-0.0291953	-0.195966	0
1332.45	-0.0304551	-0.195964	0
1332.45	-0.0315622	-0.195965	0
1332.45	-0.0326121	-0.195965	0
1332.45	-0.0336429	-0.195966	0
1332.45	-0.0346736	-0.195961	0
1332.45	-0.0357426	-0.195961	0
1332.45	-0.036926	-0.195966	0
1332.46	-0.0379377	-0.195967	0
1332.46	-0.039083	-0.195967	0
1332.46	-0.0402283	-0.195965	0
1332.46	-0.0414882	-0.195966	0
1332.46	-0.0426335	-0.195969	0
1332.46	-0.0437024	-0.195965	0
1332.46	-0.0447713	-0.195968	0
1332.46	-0.0458594	-0.195963	0
1332.46	-0.0468711	-0.195966	0
1332.47	-0.0479591	-0.195968	0
1332.47	-0.0490662	-0.19597	0
1332.47	-0.0502306	-0.19597	0
1332.47	-0.0513186	-0.195967	0
1332.47	-0.0524258	-0.195963	0
1332.47	-0.0536283	-0.195967	0
1332.47	-0.0546782	-0.195963	0
1332.47	-0.0557853	-0.195964	0
1332.48	-0.0568542	-0.195965	0
1332.48	-0.0579232	-0.195965	0
1332.48	-0.0589349	-0.195966	0
1332.48	-0.0600229	-0.19597	0
1332.48	-0.0611873	-0.195959	0
1332.48	-0.0622944	-0.195959	0
1332.48	-0.0633443	-0.195967	0
1332.48	-0.0644705	-0.195965	0
1332.49	-0.0655776	-0.195963	0
1332.49	-0.0666084	-0.195968	0
1332.49	-0.0678109	-0.195962	0
1332.49	-0.068918	-0.195965	0
1332.49	-0.0700443	-0.195972	0
1332.49	-0.0710941	-0.195962	0
1332.49	-0.0722394	-0.195958	0
1332.5	-0.0733847	-0.195968	0
1332.5	-0.0743964	-0.195964	0
1332.5	-0.0755035	-0.195969	0
1332.5	-0.0767633	-0.195968	0
1332.5	-0.0777941	-0.195966	0
1332.5	-0.0789394	-0.195966	0
1332.5	-0.0800084	-0.195961	0
1332.51	-0.0810391	-0.19597	0
1332.51	-0.0821653	-0.195963	0
1332.51	-0.0833488	-0.195966	0
1332.51	-0.0844368	-0.195972	0
1332.51	-0.0854485	-0.195964	0
1332.51	-0.0865366	-0.195966	0
1332.51	-0.0876628	-0.195962	0
1332.52	-0.0888081	-0.195966	0
1332.52	-0.0898579	-0.195964	0
1332.52	-0.0908887	-0.195969	0
1332.52	-0.0919958	-0.195968	0
1332.52	-0.0930075	-0.195962	0
1332.52	-0.0941146	-0.195967	0
1332.53	-0.0951454	-0.195964	0
1332.53	-0.0961571	-0.19597	0
1332.53	-0.0971688	-0.195962	0
1332.53	-0.0983522	-0.195963	0
1332.53	-0.0993639	-0.195971	0
1332.53	-0.100452	-0.195965	0
1332.54	-0.101654	-0.195967	0
1332.54	-0.102762	-0.195962	0
1332.54	-0.103926	-0.195959	0
1332.54	-0.104976	-0.19597	0
1332.54	-0.106159	-0.195969	0
1332.54	-0.107171	-0.195966	0
1332.55	-0.108259	-0.195968	0
1332.55	-0.109271	-0.195966	0
1332.55	-0.110302	-0.19597	0
1332.55	-0.111351	-0.195971	0
1332.55	-0.112535	-0.195967	0
1332.56	-0.113623	-0.195971	0
1332.56	-0.114635	-0.195962	0
1332.56	-0.115723	-0.195963	0
1332.56	-0.116753	-0.195966	0
1332.56	-0.117841	-0.195968	0
1332.57	-0.119044	-0.195971	0
1332.57	-0.120075	-0.195968	0
1332.57	-0.121125	-0.195968	0
1332.57	-0.122194	-0.195968	0
1332.57	-0.123243	-0.195963	0
1332.58	-0.124446	-0.195969	0
1332.58	-0.125458	-0.195968	0
1332.58	-0.126584	-0.195973	0
1332.58	-0.127634	-0.195968	0
1332.59	-0.128741	-0.195961	0
1332.59	-0.129791	-0.195963	0
1332.59	-0.130821	-0.19596	0
1332.59	-0.131852	-0.195966	0
1332.59	-0.132921	-0.195966	0
1332.6	-0.134009	-0.195963	0
1332.6	-0.135193	-0.195971	0
1332.6	-0.136281	-0.195971	0
1332.6	-0.137292	-0.195957	0
1332.61	-0.138342	-0.195966	0
1332.61	-0.139449	-0.195971	0
1332.61	-0.140537	-0.195964	0
1332.62	-0.141683	-0.195962	0
1332.62	-0.142733	-0.195963	0
1332.62	-0.143763	-0.195967	0
1332.62	-0.144832	-0.195974	0
1332.63	-0.145863	-0.195969	0
1332.63	-0.146932	-0.195966	0
1332.63	-0.148039	-0.195964	0
1332.64	-0.149051	-0.195966	0
1332.64	-0.150101	-0.195966	0
1332.64	-0.151131	-0.195964	0
1332.64	-0.152277	-0.195967	0
1332.65	-0.153327	-0.195966	0
1332.65	-0.154357	-0.195966	0
1332.65	-0.155445	-0.195973	0
1332.66	-0.156514	-0.195971	0
1332.66	-0.157583	-0.195971	0
1332.66	-0.158786	-0.195968	0
1332.67	-0.159817	-0.195966	0
1332.67	-0.161	-0.195964	0
1332.68	-0.162088	-0.195965	0
1332.68	-0.1631	-0.195967	0
1332.68	-0.164207	-0.195967	0
1332.69	-0.165295	-0.195964	0
1332.69	-0.166307	-0.195968	0
1332.7	-0.167318	-0.195968	0
1332.7	-0.168349	-0.195966	0
1332.7	-0.16938	-0.195964	0
1332.71	-0.17043	-0.195967	0
1332.71	-0.17146	-0.195968	0
1332.72	-0.172491	-0.195968	0
1332.72	-0.173503	-0.195969	0
1332.73	-0.174515	-0.195964	0
1332.73	-0.175526	-0.195967	0
1332.74	-0.176576	-0.195966	0
1332.74	-0.177645	-0.195961	0
1332.75	-0.178657	-0.195966	0
1332.76	-0.179668	-0.19596	0
1332.76	-0.180756	-0.195964	0
1332.77	-0.181768	-0.195964	0
1332.78	-0.18278	-0.195964	0
1332.79	-0.183849	-0.195966	0
1332.8	-0.18488	-0.195966	0
1332.81	-0.185987	-0.195966	0
1332.83	-0.186998	-0.19597	0
1332.87	-0.185987	-0.195969	0
1332.89	-0.184937	-0.195973	0
1332.89	-0.183868	-0.195966	0
1332.9	-0.182761	-0.195961	0
1332.91	-0.181749	-0.195968	0
1332.92	-0.180699	-0.195969	0
1332.92	-0.179649	-0.195966	0
1332.93	-0.178619	-0.195971	0
1332.93	-0.177588	-0.195969	0
1332.94	-0.176557	-0.195961	0
1332.95	-0.175526	-0.19597	0
1332.95	-0.174515	-0.195967	0
1332.95	-0.173465	-0.195966	0
1332.96	-0.172434	-0.195968	0
1332.97	-0.171403	-0.195962	0
1332.97	-0.170315	-0.195966	0
1332.98	-0.16917	-0.195971	0
1332.98	-0.168101	-0.195966	0
1332.99	-0.16707	-0.195959	0
1332.99	-0.166039	-0.195967	0
1333	-0.16499	-0.195971	0
1333	-0.163882	-0.195969	0
1333.01	-0.162833	-0.195967	0
1333.01	-0.161802	-0.195963	0
1333.02	-0.160695	-0.195967	0
1333.02	-0.159683	-0.195968	0
1333.03	-0.158671	-0.19597	0
1333.03	-0.157621	-0.19597	0
1333.04	-0.156591	-0.195967	0
1333.05	-0.155407	-0.195966	0
1333.05	-0.154357	-0.195968	0
1333.06	-0.153346	-0.195968	0
1333.07	-0.152277	-0.195964	0
1333.07	-0.151246	-0.195967	0
1333.08	-0.150082	-0.195964	0
1333.09	-0.149013	-0.195964	0
1333.09	-0.147963	-0.195966	0
1333.1	-0.146875	-0.195965	0
1333.11	-0.145806	-0.19597	0
1333.12	-0.144737	-0.195965	0
1333.13	-0.143725	-0.195971	0
1333.14	-0.142637	-0.195965	0
1333.15	-0.141625	-0.19597	0
1333.15	-0.140614	-0.195974	0
1333.16	-0.139602	-0.195969	0
1333.18	-0.138552	-0.195968	0
1333.19	-0.137521	-0.19597	0
1333.2	-0.136433	-0.19597	0
1333.21	-0.135422	-0.195966	0
1333.23	-0.13441	-0.195963	0
1333.24	-0.13336	-0.195966	0
1333.26	-0.132329	-0.19597	0
1333.28	-0.131299	-0.195966	0
1333.3	-0.130249	-0.195963	0
1333.32	-0.12918	-0.195968	0
1333.34	-0.128168	-0.195968	0
1333.37	-0.127156	-0.195969	0
1333.4	-0.126126	-0.195971	0
1333.44	-0.125057	-0.195966	0
1333.49	-0.123969	-0.195969	0
1333.55	-0.1229	-0.195969	0
1333.61	-0.121869	-0.19597	0
1333.7	-0.120857	-0.195968	0
1333.82	-0.119827	-0.195957	0
1333.98	-0.118796	-0.195971	0
1334.26	-0.117784	-0.195971	0
1334.84	-0.116715	-0.195964	0
1344.84	-0.116944	-0.195973	0
1354.84	-0.117441	-0.195968	0
1364.84	-0.117612	-0.195968	0
1374.84	-0.11786	-0.19597	0
1384.84	-0.117784	-0.195964	0
1394.84	-0.117746	-0.19597	0
1404.84	-0.117383	-0.195966	0
1414.84	-0.11683	-0.195969	0
1424.84	-0.116391	-0.195964	0
1434.84	-0.115875	-0.195968	0
1444.84	-0.11515	-0.19597	0
1454.84	-0.11473	-0.195969	0
1463.69	-0.113718	-0.195973	0
1473.69	-0.113298	-0.195964	0
1483.69	-0.112554	-0.195964	0
1493.69	-0.111829	-0.19597	0
1503.69	-0.111237	-0.195971	0
1513.69	-0.110569	-0.195967	0
1523.69	-0.110015	-0.195969	0
1533.15	-0.108984	-0.195969	0
1543.15	-0.108488	-0.195966	0
1553.15	-0.107935	-0.195971	0
1563.15	-0.10719	-0.195963	0
1573.15	-0.106732	-0.195968	0
1583.15	-0.106026	-0.195968	0
1593.15	-0.105434	-0.19597	0
1603.15	-0.104919	-0.195972	0
1613.15	-0.104136	-0.19597	0
1623.15	-0.103659	-0.195971	0
1633.15	-0.103162	-0.195971	0
1643.15	-0.102494	-0.195969	0
1653.15	-0.102017	-0.195975	0
1663.15	-0.101597	-0.195971	0
1673.15	-0.101044	-0.195972	0
1683.15	-0.100509	-0.195971	0
1693.15	-0.100127	-0.195971	0
1703.15	-0.0997075	-0.195971	0
1713.15	-0.0993066	-0.195971	0
1723.15	-0.098944	-0.19597	0
1733.15	-0.0983904	-0.195965	0
1743.15	-0.0982186	-0.195977	0
1753.15	-0.0977605	-0.195969	0
1763.15	-0.0973787	-0.195968	0
1773.15	-0.0969206	-0.195971	0
1783.15	-0.0967106	-0.195967	0
1793.15	-0.0963098	-0.195968	0
1803.15	-0.0960234	-0.195971	0
1813.15	-0.0956226	-0.195972	0
1823.15	-0.0953363	-0.195975	0
1833.15	-0.0950499	-0.195963	0
1843.15	-0.0946682	-0.195975	0
1853.15	-0.0945155	-0.195975	0
1863.15	-0.0942101	-0.195972	0
1873.15	-0.0937329	-0.195966	0
1883.15	-0.0936183	-0.195968	0
1893.15	-0.0934274	-0.195966	0
1903.15	-0.0930648	-0.195971	0
1913.15	-0.0927593	-0.195969	0
1923.15	-0.0925876	-0.195973	0
1933.15	-0.0923967	-0.195969	0
1943.15	-0.0920149	-0.19597	0
1953.15	-0.0919195	-0.195973	0
1963.15	-0.0915759	-0.19597	0
1973.15	-0.0913468	-0.195974	0
1983.15	-0.0910987	-0.195971	0
1993.15	-0.0909078	-0.195969	0
2003.15	-0.0907169	-0.195968	0
2013.15	-0.0904688	-0.195967	0
2023.15	-0.0901824	-0.19597	0
2033.15	-0.0900679	-0.195971	0
2043.15	-0.0897434	-0.195968	0
2053.15	-0.0896289	-0.195963	0
2063.15	-0.089438	-0.195971	0
2073.15	-0.089228	-0.195964	0
2083.15	-0.0890944	-0.19597	0
2093.15	-0.0887317	-0.195968	0
2103.15	-0.0887126	-0.19597	0
2113.15	-0.0884836	-0.195969	0
2123.15	-0.0882736	-0.19597	0
2133.15	-0.0881972	-0.195969	0
2143.15	-0.0880445	-0.195975	0
2153.15	-0.0878918	-0.195971	0
2163.15	-0.0876437	-0.195969	0
2173.15	-0.087491	-0.195968	0
2183.15	-0.087281	-0.195971	0
2193.15	-0.0873001	-0.195969	0
2203.15	-0.0870138	-0.195971	0
2213.15	-0.0869374	-0.195967	0
2223.15	-0.0867465	-0.195972	0
2233.15	-0.0865175	-0.195968	0
2243.15	-0.0864793	-0.195972	0
2253.15	-0.086193	-0.195976	0
2263.15	-0.0860594	-0.195965	0
2273.15	-0.085983	-0.195967	0
2283.15	-0.0859066	-0.195967	0
2293.15	-0.0856776	-0.19597	0
2303.15	-0.0855249	-0.195975	0
2313.15	-0.0853722	-0.195972	0
2323.15	-0.0852767	-0.195975	0
2333.15	-0.0850859	-0.19598	0
2343.15	-0.0850668	-0.195972	0
2353.15	-0.0849713	-0.19597	0
2363.15	-0.0848377	-0.195971	0
2373.15	-0.0847232	-0.195974	0
2383.15	-0.0845132	-0.195971	0
2393.15	-0.0844368	-0.19597	0
2403.15	-0.0842841	-0.195971	0
2413.15	-0.0841887	-0.19597	0
2423.15	-0.0839406	-0.195971	0
2433.15	-0.0840169	-0.195965	0
2443.15	-0.083826	-0.195971	0
2453.15	-0.083616	-0.195971	0
2463.15	-0.083616	-0.195966	0
2473.15	-0.0832915	-0.195967	0
2483.15	-0.0834252	-0.195974	0
2493.15	-0.0832725	-0.19597	0
2503.15	-0.0831579	-0.195968	0
2513.15	-0.0830243	-0.195969	0
2523.15	-0.0828716	-0.195968	0
2533.15	-0.0828143	-0.195966	0
2543.15	-0.0826998	-0.195963	0
2553.15	-0.0826044	-0.195972	0
2563.15	-0.0824517	-0.195975	0
2573.15	-0.0824517	-0.195969	0
2583.15	-0.0823753	-0.195964	0
2593.15	-0.0822799	-0.195974	0
2603.15	-0.0821463	-0.19597	0
2613.15	-0.0819745	-0.195972	0
2623.15	-0.0819172	-0.195968	0
2633.15	-0.0818217	-0.195968	0
2643.15	-0.0817072	-0.195972	0
2653.15	-0.0817645	-0.195975	0
2663.15	-0.0815545	-0.195967	0
2673.15	-0.0814591	-0.195974	0
2683.15	-0.08144	-0.19597	0
2693.15	-0.0813255	-0.195976	0
2703.15	-0.0812109	-0.195973	0
2713.15	-0.0810582	-0.195967	0
2723.15	-0.0810582	-0.195975	0
2733.15	-0.0808864	-0.195967	0
2743.15	-0.0808864	-0.195975	0
2753.15	-0.0806955	-0.195973	0
2763.15	-0.0806574	-0.195973	0
2773.15	-0.0806765	-0.195971	0
2783.15	-0.0805047	-0.195971	0
2793.15	-0.0805237	-0.195975	0
2803.15	-0.0804283	-0.195971	0
2813.15	-0.0801802	-0.195971	0
2823.15	-0.0801229	-0.195966	0
2833.15	-0.0801229	-0.195968	0
2843.15	-0.0800847	-0.195973	0
2853.15	-0.0798747	-0.195967	0
2863.15	-0.079932	-0.195974	0
2873.15	-0.0798366	-0.195969	0
2883.15	-0.0797411	-0.195975	0
2893.15	-0.0797029	-0.195969	0
2903.15	-0.0797029	-0.195969	0
2913.15	-0.0795693	-0.195966	0
2923.15	-0.0795693	-0.195971	0
2933.15	-0.0793212	-0.195971	0
2943.15	-0.0793784	-0.195975	0
2953.15	-0.0793021	-0.19597	0
2963.15	-0.0791303	-0.195967	0
2973.15	-0.0791876	-0.195971	0
2983.15	-0.0790158	-0.195968	0
2993.15	-0.0788249	-0.195972	0
3003.15	-0.0789585	-0.195974	0
3013.15	-0.078844	-0.19597	0
3023.15	-0.0787485	-0.195968	0
3033.15	-0.0787676	-0.195966	0
3043.15	-0.0786149	-0.195972	0
3053.15	-0.0784622	-0.195976	0
3063.15	-0.0785386	-0.195972	0
3073.15	-0.0784431	-0.195973	0
3083.15	-0.0783668	-0.195974	0
3093.15	-0.0783477	-0.195976	0
3103.15	-0.0782904	-0.195968	0
3113.15	-0.0781377	-0.195969	0
3123.15	-0.0779659	-0.195968	0
3132.43	-0.0780804	-0.195971	0