File: EXPERIMENTAL/Data/Battery-cycling/E-measurements/C-cell/2024-04-26_E-measurements_sample-Ionic-electrolyte-03_C-cell_Cu-Li-Cellgard2400-separator_25muL-ionic-electrolyte_outside-glovebox_sigma-0.02_added-OCV-0.1s_04_CP_C01.txt
time/s	Ewe/V	I/mA	error
2551.97	-0.0880237	-0.194479	0
2551.97	-0.165703	-0.195956	0
2551.97	-0.18111	-0.195958	0
2551.97	-0.194225	-0.195961	0
2551.98	-0.206119	-0.195958	0
2551.98	-0.217345	-0.19596	0
2551.98	-0.227883	-0.195958	0
2551.98	-0.237658	-0.195959	0
2551.98	-0.247146	-0.195966	0
2551.98	-0.256138	-0.19596	0
2551.98	-0.264385	-0.195958	0
2551.98	-0.272346	-0.195961	0
2551.98	-0.280021	-0.19596	0
2551.98	-0.287218	-0.195965	0
2551.99	-0.294072	-0.195961	0
2551.99	-0.300696	-0.19596	0
2551.99	-0.307092	-0.195958	0
2551.99	-0.314308	-0.195961	0
2551.99	-0.320054	-0.195963	0
2551.99	-0.325553	-0.19596	0
2551.99	-0.330917	-0.19597	0
2551.99	-0.337981	-0.195966	0
2551.99	-0.346457	-0.195961	0
2552	-0.355316	-0.195964	0
2552	-0.363009	-0.195966	0
2552	-0.370665	-0.195961	0
2552	-0.377958	-0.195958	0
2552	-0.384792	-0.19596	0
2552.01	-0.391302	-0.195963	0
2552.01	-0.397526	-0.195961	0
2552.01	-0.40375	-0.195961	0
2552.01	-0.409114	-0.195958	0
2552.02	-0.414784	-0.195954	0
2552.02	-0.421638	-0.195967	0
2552.02	-0.428587	-0.195959	0
2552.02	-0.434448	-0.195965	0
2552.03	-0.4405	-0.195963	0
2552.03	-0.446074	-0.195955	0
2552.03	-0.451744	-0.195967	0
2552.04	-0.457834	-0.195968	0
2552.04	-0.463562	-0.195969	0
2552.04	-0.469098	-0.195963	0
2552.05	-0.474883	-0.195968	0
2552.05	-0.480725	-0.195962	0
2552.06	-0.486605	-0.195958	0
2552.06	-0.492294	-0.195965	0
2552.07	-0.497964	-0.195963	0
2552.07	-0.503863	-0.195964	0
2552.08	-0.509361	-0.195967	0
2552.08	-0.514936	-0.195965	0
2552.09	-0.52051	-0.195967	0
2552.09	-0.526352	-0.195968	0
2552.1	-0.531679	-0.195958	0
2552.1	-0.53773	-0.195962	0
2552.11	-0.543229	-0.195959	0
2552.12	-0.549204	-0.195962	0
2552.12	-0.554721	-0.19597	0
2552.13	-0.560124	-0.195959	0
2552.13	-0.565851	-0.195959	0
2552.14	-0.571273	-0.195961	0
2552.15	-0.577134	-0.195963	0
2552.15	-0.582652	-0.195959	0
2552.16	-0.587863	-0.195965	0
2552.17	-0.593553	-0.195965	0
2552.17	-0.599146	-0.195961	0
2552.18	-0.604683	-0.195965	0
2552.19	-0.610429	-0.19596	0
2552.19	-0.615641	-0.195962	0
2552.2	-0.620967	-0.195963	0
2552.21	-0.626351	-0.195964	0
2552.21	-0.631735	-0.195963	0
2552.22	-0.637347	-0.19596	0
2552.23	-0.642636	-0.195957	0
2552.24	-0.648	-0.195965	0
2552.24	-0.65346	-0.195965	0
2552.25	-0.658768	-0.195961	0
2552.26	-0.664018	-0.195964	0
2552.27	-0.669745	-0.195966	0
2552.27	-0.675453	-0.195961	0
2552.28	-0.680856	-0.195964	0
2552.29	-0.686239	-0.195965	0
2552.3	-0.691814	-0.195958	0
2552.31	-0.697274	-0.195958	0
2552.31	-0.702601	-0.195968	0
2552.32	-0.708041	-0.195961	0
2552.33	-0.713349	-0.195965	0
2552.34	-0.719019	-0.195964	0
2552.35	-0.724746	-0.195963	0
2552.36	-0.730283	-0.19597	0
2552.36	-0.735666	-0.195967	0
2552.37	-0.741126	-0.195967	0
2552.38	-0.746434	-0.19596	0
2552.39	-0.751989	-0.195965	0
2552.4	-0.757373	-0.195961	0
2552.41	-0.762661	-0.195963	0
2552.42	-0.76814	-0.195958	0
2552.43	-0.773657	-0.195965	0
2552.44	-0.779079	-0.195961	0
2552.44	-0.784558	-0.195961	0
2552.45	-0.790133	-0.195963	0
2552.46	-0.79565	-0.195965	0
2552.47	-0.800957	-0.195967	0
2552.48	-0.806227	-0.19596	0
2552.49	-0.812145	-0.19596	0
2552.5	-0.817357	-0.195969	0
2552.51	-0.822569	-0.195965	0
2552.52	-0.828086	-0.195963	0
2552.53	-0.83345	-0.195967	0
2552.54	-0.838777	-0.195964	0
2552.55	-0.844141	-0.195971	0
2552.56	-0.849449	-0.195964	0
2552.57	-0.85489	-0.195966	0
2552.59	-0.860292	-0.195963	0
2552.6	-0.865695	-0.195963	0
2552.61	-0.87106	-0.195965	0
2552.62	-0.876482	-0.195962	0
2552.63	-0.881789	-0.195965	0
2552.64	-0.887077	-0.195965	0
2552.65	-0.892556	-0.195963	0
2552.66	-0.897883	-0.195966	0
2552.67	-0.903305	-0.195965	0
2552.69	-0.908669	-0.195968	0
2552.7	-0.914072	-0.195961	0
2552.71	-0.919417	-0.195963	0
2552.72	-0.924686	-0.195963	0
2552.73	-0.930147	-0.195958	0
2552.75	-0.935568	-0.195966	0
2552.76	-0.941124	-0.195964	0
2552.77	-0.946565	-0.195961	0
2552.78	-0.952101	-0.195962	0
2552.8	-0.95737	-0.19596	0
2552.81	-0.962735	-0.195961	0
2552.82	-0.968252	-0.19596	0
2552.84	-0.973579	-0.195965	0
2552.85	-0.979096	-0.195965	0
2552.86	-0.984594	-0.195965	0
2552.88	-0.990092	-0.195965	0
2552.89	-0.995362	-0.195965	0
2552.91	-1.00071	-0.195963	0
2552.92	-1.00619	-0.195961	0
2552.94	-1.01182	-0.195968	0
2552.95	-1.01699	-0.195967	0
2552.97	-1.02232	-0.195965	0
2552.98	-1.0277	-0.195965	0
2553	-1.03309	-0.195962	0
2553.01	-1.03826	-0.195963	0
2553.03	-1.04351	-0.195967	0
2553.05	-1.04884	-0.195965	0
2553.06	-1.05412	-0.195963	0
2553.08	-1.05945	-0.195966	0
2553.1	-1.06483	-0.195964	0
2553.11	-1.07027	-0.195961	0
2553.13	-1.07564	-0.19596	0
2553.15	-1.08077	-0.195964	0
2553.17	-1.08601	-0.19596	0
2553.19	-1.09137	-0.195963	0
2553.2	-1.0967	-0.195963	0
2553.22	-1.10212	-0.195966	0
2553.24	-1.10744	-0.195963	0
2553.26	-1.11273	-0.195962	0
2553.28	-1.11783	-0.195967	0
2553.3	-1.12329	-0.195965	0
2553.32	-1.12877	-0.195961	0
2553.34	-1.13419	-0.195961	0
2553.36	-1.13958	-0.195963	0
2553.38	-1.14481	-0.195957	0
2553.4	-1.15017	-0.195962	0
2553.42	-1.15531	-0.195959	0
2553.44	-1.16082	-0.195965	0
2553.46	-1.16626	-0.195967	0
2553.48	-1.17155	-0.195965	0
2553.5	-1.17696	-0.195965	0
2553.52	-1.18255	-0.195966	0
2553.55	-1.18797	-0.195964	0
2553.57	-1.19324	-0.195959	0
2553.59	-1.19843	-0.19597	0
2553.61	-1.2037	-0.195967	0
2553.64	-1.20899	-0.195963	0
2553.66	-1.21413	-0.195963	0
2553.68	-1.21934	-0.195964	0
2553.71	-1.22453	-0.195967	0
2553.73	-1.22972	-0.195961	0
2553.76	-1.23488	-0.195968	0
2553.78	-1.24009	-0.195963	0
2553.81	-1.24549	-0.19596	0
2553.84	-1.25084	-0.195969	0
2553.87	-1.25611	-0.195963	0
2553.9	-1.26143	-0.195967	0
2553.92	-1.26659	-0.195961	0
2553.95	-1.27195	-0.195961	0
2553.98	-1.27711	-0.195964	0
2554.02	-1.28236	-0.195961	0
2554.05	-1.28776	-0.195963	0
2554.08	-1.29305	-0.195961	0
2554.11	-1.29818	-0.195967	0
2554.15	-1.30345	-0.195962	0
2554.18	-1.30868	-0.195967	0
2554.22	-1.31401	-0.195961	0
2554.26	-1.31922	-0.195963	0
2554.29	-1.3244	-0.195964	0
2554.33	-1.32961	-0.195961	0
2554.37	-1.33486	-0.195961	0
2554.41	-1.34016	-0.19596	0
2554.46	-1.34526	-0.195967	0
2554.5	-1.35059	-0.195966	0
2554.54	-1.35572	-0.19596	0
2554.59	-1.36094	-0.19596	0
2554.64	-1.36599	-0.195963	0
2554.69	-1.37119	-0.195968	0
2554.74	-1.37655	-0.195959	0
2554.79	-1.38174	-0.195961	0
2554.84	-1.38686	-0.195963	0
2554.89	-1.39207	-0.195969	0
2554.95	-1.39727	-0.195963	0
2555	-1.40261	-0.195967	0
2555.06	-1.40786	-0.195963	0
2555.12	-1.41304	-0.195965	0
2555.17	-1.41817	-0.195964	0
2555.23	-1.42344	-0.195961	0
2555.29	-1.42863	-0.195965	0
2555.35	-1.43383	-0.195965	0
2555.4	-1.43888	-0.195963	0
2555.46	-1.44408	-0.195965	0
2555.52	-1.44921	-0.195961	0
2555.58	-1.45444	-0.195963	0
2555.64	-1.45979	-0.195963	0
2555.69	-1.46494	-0.195966	0
2555.75	-1.47006	-0.195967	0
2555.81	-1.47518	-0.19596	0
2555.86	-1.48041	-0.19596	0
2555.92	-1.48564	-0.195968	0
2555.98	-1.49077	-0.195965	0
2556.04	-1.49608	-0.195961	0
2556.09	-1.50124	-0.195969	0
2556.15	-1.50649	-0.195963	0
2556.21	-1.51168	-0.19596	0
2556.27	-1.51678	-0.195965	0
2556.32	-1.52201	-0.19597	0
2556.38	-1.52718	-0.19596	0
2556.44	-1.53233	-0.195961	0
2556.49	-1.53753	-0.195965	0
2556.55	-1.54278	-0.195971	0
2556.61	-1.54793	-0.195967	0
2556.67	-1.55322	-0.195972	0
2556.72	-1.55834	-0.195964	0
2556.78	-1.56353	-0.195967	0
2556.84	-1.56872	-0.195963	0
2556.89	-1.5739	-0.19597	0
2556.95	-1.57911	-0.195963	0
2557.01	-1.58434	-0.195964	0
2557.07	-1.58972	-0.195964	0
2557.13	-1.59501	-0.195963	0
2557.18	-1.60015	-0.195967	0
2557.24	-1.60538	-0.195965	0
2557.3	-1.61086	-0.195964	0
2557.36	-1.61603	-0.195961	0
2557.41	-1.62126	-0.195963	0
2557.47	-1.62645	-0.19596	0
2557.53	-1.63186	-0.195959	0
2557.59	-1.63701	-0.195968	0
2557.65	-1.64226	-0.195961	0
2557.71	-1.64745	-0.195969	0
2557.76	-1.65268	-0.195963	0
2557.82	-1.65782	-0.195966	0
2557.88	-1.66297	-0.195965	0
2557.93	-1.66809	-0.195967	0
2557.99	-1.6733	-0.195963	0
2558.05	-1.67848	-0.195966	0
2558.11	-1.68359	-0.195963	0
2558.17	-1.68888	-0.195967	0
2558.22	-1.69413	-0.195965	0
2558.28	-1.69934	-0.195965	0
2558.34	-1.70444	-0.195967	0
2558.4	-1.70967	-0.195961	0
2558.46	-1.71481	-0.195968	0
2558.51	-1.72004	-0.195964	0
2558.57	-1.72517	-0.195967	0
2558.63	-1.73039	-0.19596	0
2558.69	-1.7355	-0.195965	0
2558.75	-1.74071	-0.19597	0
2558.81	-1.74583	-0.19597	0
2558.87	-1.75098	-0.195961	0
2558.92	-1.75625	-0.195959	0
2558.98	-1.76152	-0.19596	0
2559.04	-1.76668	-0.195966	0
2559.1	-1.77185	-0.195958	0
2559.16	-1.77708	-0.19596	0
2559.22	-1.78222	-0.195969	0
2559.28	-1.78737	-0.195963	0
2559.34	-1.79258	-0.195963	0
2559.4	-1.79793	-0.195968	0
2559.46	-1.80308	-0.195968	0
2559.52	-1.80824	-0.195968	0
2559.58	-1.81347	-0.195965	0
2559.64	-1.8187	-0.195968	0
2559.7	-1.82401	-0.195965	0
2559.77	-1.82922	-0.19596	0
2559.83	-1.83437	-0.195963	0
2559.89	-1.83961	-0.195965	0
2559.95	-1.84489	-0.195959	0
2560.01	-1.85007	-0.19596	0
2560.07	-1.8552	-0.195966	0
2560.13	-1.86043	-0.195965	0
2560.2	-1.86565	-0.19596	0
2560.26	-1.87091	-0.195965	0
2560.32	-1.87607	-0.195963	0
2560.38	-1.8812	-0.195962	0
2560.44	-1.88649	-0.195961	0
2560.51	-1.89165	-0.195965	0
2560.57	-1.89678	-0.195965	0
2560.63	-1.90199	-0.195967	0
2560.69	-1.90713	-0.19597	0
2560.76	-1.91234	-0.195963	0
2560.82	-1.91746	-0.195963	0
2560.88	-1.92259	-0.19597	0
2560.94	-1.92769	-0.195965	0
2561.01	-1.93288	-0.19596	0
2561.07	-1.93806	-0.195966	0
2561.13	-1.94325	-0.195963	0
2561.2	-1.94837	-0.195963	0
2561.26	-1.9536	-0.195963	0
2561.32	-1.95868	-0.195964	0
2561.39	-1.96385	-0.19596	0
2561.45	-1.96906	-0.195968	0
2561.52	-1.97433	-0.195967	0
2561.58	-1.97949	-0.195966	0
2561.65	-1.98466	-0.195963	0
2561.71	-1.98983	-0.195962	0
2561.78	-1.99499	-0.195965	0
2561.84	-2.00016	-0.195966	0
2561.91	-2.00539	-0.195965	0
2561.97	-2.01057	-0.195968	0
2562.04	-2.01582	-0.19596	0
2562.1	-2.02093	-0.195966	0
2562.17	-2.02609	-0.195961	0
2562.23	-2.0312	-0.195964	0
2562.3	-2.03638	-0.195963	0
2562.36	-2.04159	-0.195965	0
2562.43	-2.04676	-0.195964	0
2562.5	-2.05188	-0.195969	0
2562.56	-2.05707	-0.195967	0
2562.63	-2.06223	-0.195961	0
2562.7	-2.06738	-0.195967	0
2562.76	-2.07252	-0.195961	0
2562.83	-2.07769	-0.195964	0
2562.9	-2.08292	-0.195969	0
2562.96	-2.08802	-0.195965	0
2563.03	-2.09321	-0.195967	0
2563.1	-2.09854	-0.195967	0
2563.17	-2.10373	-0.195967	0
2563.24	-2.10885	-0.195964	0
2563.31	-2.11411	-0.195967	0
2563.38	-2.11925	-0.195967	0
2563.45	-2.12454	-0.195965	0
2563.52	-2.12969	-0.195963	0
2563.59	-2.13479	-0.195963	0
2563.66	-2.13996	-0.195967	0
2563.73	-2.14516	-0.195964	0
2563.8	-2.15035	-0.195961	0
2563.87	-2.15552	-0.19596	0
2563.94	-2.16064	-0.195965	0
2564.02	-2.16589	-0.195961	0
2564.09	-2.17103	-0.195968	0
2564.16	-2.17645	-0.195965	0
2564.23	-2.1816	-0.195966	0
2564.3	-2.18676	-0.195962	0
2564.37	-2.19199	-0.195967	0
2564.44	-2.19714	-0.195963	0
2564.51	-2.20239	-0.195964	0
2564.58	-2.20756	-0.195963	0
2564.65	-2.21281	-0.19597	0
2564.71	-2.21796	-0.195967	0
2564.78	-2.22323	-0.195968	0
2564.85	-2.22854	-0.195965	0
2564.92	-2.23385	-0.195967	0
2564.99	-2.23921	-0.195967	0
2565.05	-2.24435	-0.195964	0
2565.12	-2.24952	-0.19597	0
2565.18	-2.25471	-0.19597	0
2565.25	-2.26002	-0.195965	0
2565.31	-2.26523	-0.195965	0
2565.38	-2.27054	-0.195968	0
2565.44	-2.27568	-0.195965	0
2565.51	-2.28089	-0.195963	0
2565.57	-2.28618	-0.195965	0
2565.64	-2.29169	-0.195963	0
2565.7	-2.29687	-0.195962	0
2565.76	-2.30206	-0.195965	0
2565.82	-2.30712	-0.195963	0
2565.88	-2.31225	-0.195967	0
2565.94	-2.31752	-0.195964	0
2566	-2.32272	-0.195962	0
2566.06	-2.32781	-0.195964	0
2566.12	-2.33295	-0.195965	0
2566.18	-2.3381	-0.195962	0
2566.24	-2.34335	-0.195965	0
2566.3	-2.34851	-0.195972	0
2566.36	-2.3537	-0.195967	0
2566.42	-2.35886	-0.195962	0
2566.48	-2.36413	-0.195963	0
2566.54	-2.36945	-0.195967	0
2566.59	-2.37459	-0.195963	0
2566.65	-2.37972	-0.19596	0
2566.71	-2.38493	-0.195963	0
2566.77	-2.39009	-0.195958	0
2566.82	-2.3953	-0.195961	0
2566.88	-2.40055	-0.195965	0
2566.94	-2.40576	-0.195971	0
2566.99	-2.41118	-0.195963	0
2567.05	-2.41651	-0.195964	0
2567.11	-2.4217	-0.195967	0
2567.16	-2.42692	-0.195961	0
2567.22	-2.43226	-0.195964	0
2567.28	-2.43751	-0.19597	0
2567.33	-2.44274	-0.195967	0
2567.39	-2.44801	-0.195966	0
2567.44	-2.45322	-0.195967	0
2567.5	-2.45849	-0.195963	0
2567.56	-2.46378	-0.195962	0
2567.61	-2.46888	-0.195956	0
2567.66	-2.47411	-0.195963	0
2567.72	-2.47921	-0.195965	0
2567.77	-2.48447	-0.19596	0
2567.82	-2.48972	-0.19596	0
2567.88	-2.4948	-0.19597	0
2567.93	-2.50009	-0.195964	0
2567.98	-2.50528	-0.195968	0
2568.04	-2.51051	-0.195965	0
2568.09	-2.51563	-0.195967	0
2568.14	-2.52082	-0.195962	0
2568.2	-2.52615	-0.195961	0
2568.25	-2.53138	-0.195969	0
2568.3	-2.53665	-0.195966	0
2568.36	-2.54205	-0.195964	0
2568.41	-2.54725	-0.195965	0
2568.46	-2.55253	-0.195963	0
2568.51	-2.55771	-0.195965	0
2568.57	-2.56309	-0.195963	0
2568.62	-2.56825	-0.195957	0
2568.67	-2.57344	-0.19596	0
2568.72	-2.57869	-0.195965	0
2568.77	-2.58396	-0.195963	0
2568.82	-2.58907	-0.195965	0
2568.87	-2.59444	-0.195963	0
2568.93	-2.59978	-0.195968	0
2568.98	-2.60511	-0.195966	0
2569.03	-2.61036	-0.195967	0
2569.08	-2.61573	-0.195965	0
2569.13	-2.62099	-0.195955	0
2569.18	-2.62623	-0.195965	0
2569.23	-2.6314	-0.195963	0
2569.28	-2.63659	-0.19597	0
2569.33	-2.64177	-0.195963	0
2569.38	-2.64702	-0.195964	0
2569.43	-2.65227	-0.195963	0
2569.48	-2.65761	-0.195966	0
2569.53	-2.66277	-0.195959	0
2569.58	-2.66802	-0.195965	0
2569.63	-2.67321	-0.195959	0
2569.68	-2.67846	-0.195963	0
2569.73	-2.68358	-0.195964	0
2569.77	-2.68877	-0.195972	0
2569.82	-2.694	-0.195965	0
2569.87	-2.69923	-0.195966	0
2569.92	-2.70448	-0.195965	0
2569.97	-2.70975	-0.195967	0
2570.02	-2.71494	-0.19596	0
2570.07	-2.72021	-0.195959	0
2570.11	-2.72538	-0.195962	0
2570.16	-2.73054	-0.19597	0
2570.21	-2.73592	-0.195964	0
2570.26	-2.74115	-0.195966	0
2570.31	-2.74631	-0.195959	0
2570.36	-2.75167	-0.195967	0
2570.4	-2.75692	-0.195964	0
2570.45	-2.76213	-0.19596	0
2570.5	-2.76737	-0.195962	0
2570.55	-2.77267	-0.19596	0
2570.59	-2.77787	-0.195965	0
2570.64	-2.7831	-0.195965	0
2570.68	-2.78825	-0.195966	0
2570.73	-2.79346	-0.195963	0
2570.78	-2.7986	-0.195964	0
2570.82	-2.80377	-0.195963	0
2570.87	-2.80898	-0.195968	0
2570.91	-2.81406	-0.195965	0
2570.96	-2.81941	-0.19596	0
2571.01	-2.82491	-0.195962	0
2571.06	-2.83	-0.195964	0
2571.1	-2.83525	-0.19596	0
2571.15	-2.8405	-0.195966	0
2571.19	-2.84575	-0.195969	0
2571.24	-2.85097	-0.19596	0
2571.28	-2.85614	-0.195964	0
2571.33	-2.86131	-0.195963	0
2571.37	-2.86654	-0.195964	0
2571.42	-2.87204	-0.195968	0
2571.47	-2.87731	-0.195962	0
2571.51	-2.88248	-0.195967	0
2571.56	-2.88766	-0.195968	0
2571.6	-2.89283	-0.195961	0
2571.64	-2.89804	-0.195962	0
2571.69	-2.90324	-0.195965	0
2571.73	-2.90841	-0.195967	0
2571.78	-2.91368	-0.195967	0
2571.82	-2.91876	-0.195964	0
2571.86	-2.92389	-0.195968	0
2571.91	-2.92918	-0.195963	0
2571.95	-2.93436	-0.195965	0
2572	-2.93964	-0.195968	0
2572.04	-2.94486	-0.19596	0
2572.09	-2.95005	-0.195965	0
2572.13	-2.95526	-0.195962	0
2572.17	-2.96043	-0.195961	0
2572.22	-2.96568	-0.19596	0
2572.26	-2.97097	-0.195964	0
2572.31	-2.97624	-0.195968	0
2572.35	-2.98138	-0.195968	0
2572.39	-2.98668	-0.195963	0
2572.44	-2.99199	-0.195964	0
2572.48	-2.99715	-0.195966	0
2572.53	-3.0023	-0.195963	0
2572.57	-3.00745	-0.195971	0
2572.61	-3.0127	-0.195965	0
2572.66	-3.01797	-0.195966	0
2572.7	-3.02319	-0.195965	0
2572.74	-3.02847	-0.19597	0
2572.79	-3.03382	-0.195972	0
2572.83	-3.03903	-0.195963	0
2572.88	-3.04432	-0.195965	0
2572.92	-3.04947	-0.195967	0
2572.96	-3.05472	-0.195967	0
2573.01	-3.05986	-0.195965	0
2573.05	-3.06507	-0.195963	0
2573.09	-3.07017	-0.19597	0
2573.14	-3.07548	-0.195963	0
2573.18	-3.08057	-0.195958	0
2573.22	-3.0858	-0.195968	0
2573.27	-3.09113	-0.195965	0
2573.31	-3.09629	-0.195966	0
2573.35	-3.10163	-0.195956	0
2573.4	-3.10679	-0.195963	0
2573.44	-3.11211	-0.195966	0
2573.49	-3.11744	-0.195963	0
2573.53	-3.12263	-0.195962	0
2573.57	-3.12782	-0.195966	0
2573.62	-3.13311	-0.195963	0
2573.66	-3.1385	-0.19597	0
2573.71	-3.14365	-0.195964	0
2573.75	-3.14892	-0.19596	0
2573.79	-3.15409	-0.195967	0
2573.84	-3.15948	-0.195961	0
2573.88	-3.16455	-0.195967	0
2573.92	-3.16971	-0.195962	0
2573.97	-3.17492	-0.195963	0
2574.01	-3.18015	-0.195967	0
2574.06	-3.18533	-0.195965	0
2574.1	-3.19054	-0.195963	0
2574.15	-3.19613	-0.195965	0
2574.19	-3.20138	-0.195964	0
2574.24	-3.20661	-0.195965	0
2574.28	-3.21175	-0.195965	0
2574.32	-3.21706	-0.195958	0
2574.37	-3.22231	-0.195965	0
2574.41	-3.2274	-0.195961	0
2574.46	-3.23271	-0.195967	0
2574.5	-3.23796	-0.195963	0
2574.54	-3.24323	-0.195963	0
2574.59	-3.24852	-0.195965	0
2574.63	-3.25367	-0.195962	0
2574.68	-3.25883	-0.195965	0
2574.72	-3.26396	-0.195967	0
2574.77	-3.26931	-0.195961	0
2574.81	-3.27452	-0.195965	0
2574.86	-3.27967	-0.195963	0
2574.9	-3.28498	-0.195961	0
2574.95	-3.29019	-0.195967	0
2574.99	-3.2954	-0.19597	0
2575.04	-3.30075	-0.195964	0
2575.08	-3.30608	-0.19597	0
2575.13	-3.31144	-0.195964	0
2575.17	-3.31665	-0.195966	0
2575.22	-3.322	-0.195965	0
2575.26	-3.32719	-0.195958	0
2575.31	-3.33238	-0.195968	0
2575.35	-3.33761	-0.195967	0
2575.4	-3.34298	-0.195965	0
2575.44	-3.34817	-0.195967	0
2575.49	-3.35342	-0.195965	0
2575.53	-3.35861	-0.195968	0
2575.58	-3.36377	-0.195965	0
2575.63	-3.36891	-0.195964	0
2575.67	-3.37402	-0.195968	0
2575.72	-3.37923	-0.195967	0
2575.76	-3.38443	-0.195963	0
2575.81	-3.38979	-0.195965	0
2575.85	-3.39495	-0.195967	0
2575.9	-3.4002	-0.195963	0
2575.95	-3.40541	-0.195961	0
2575.99	-3.41068	-0.195965	0
2576.04	-3.41583	-0.195961	0
2576.08	-3.421	-0.195963	0
2576.13	-3.42622	-0.195968	0
2576.18	-3.43156	-0.195963	0
2576.22	-3.43675	-0.195966	0
2576.27	-3.44199	-0.195968	0
2576.32	-3.44712	-0.195964	0
2576.36	-3.45233	-0.19597	0
2576.41	-3.45751	-0.195964	0
2576.46	-3.46276	-0.195961	0
2576.5	-3.46793	-0.195956	0
2576.55	-3.47312	-0.195963	0
2576.6	-3.47839	-0.195965	0
2576.65	-3.4836	-0.19596	0
2576.69	-3.48885	-0.195962	0
2576.74	-3.49408	-0.195965	0
2576.79	-3.49934	-0.195961	0
2576.84	-3.50447	-0.195962	0
2576.88	-3.50963	-0.195965	0
2576.93	-3.51491	-0.195956	0
2576.98	-3.52024	-0.19596	0
2577.03	-3.52539	-0.195967	0
2577.08	-3.53059	-0.195967	0
2577.13	-3.5358	-0.195963	0
2577.17	-3.54097	-0.195965	0
2577.22	-3.54615	-0.195964	0
2577.27	-3.55128	-0.19596	0
2577.32	-3.55665	-0.195965	0
2577.37	-3.56184	-0.19597	0
2577.42	-3.56713	-0.195963	0
2577.47	-3.57236	-0.195965	0
2577.52	-3.57767	-0.195964	0
2577.57	-3.58286	-0.195963	0
2577.62	-3.58797	-0.195969	0
2577.67	-3.59315	-0.195962	0
2577.72	-3.59828	-0.195966	0
2577.77	-3.60357	-0.195964	0
2577.82	-3.60882	-0.195963	0
2577.87	-3.61403	-0.19596	0
2577.92	-3.61915	-0.195962	0
2577.97	-3.62438	-0.195964	0
2578.02	-3.62965	-0.195963	0
2578.07	-3.63481	-0.195963	0
2578.13	-3.63996	-0.195963	0
2578.18	-3.64519	-0.195965	0
2578.23	-3.65036	-0.195965	0
2578.28	-3.65561	-0.195961	0
2578.33	-3.66079	-0.195965	0
2578.39	-3.666	-0.195963	0
2578.44	-3.6711	-0.195968	0
2578.49	-3.67637	-0.195958	0
2578.55	-3.68154	-0.195972	0
2578.6	-3.68664	-0.195966	0
2578.65	-3.69181	-0.195965	0
2578.71	-3.69693	-0.195971	0
2578.76	-3.70231	-0.195965	0
2578.82	-3.7075	-0.195965	0
2578.87	-3.71256	-0.195967	0
2578.93	-3.71776	-0.195963	0
2578.98	-3.72297	-0.195962	0
2579.04	-3.72837	-0.195965	0
2579.1	-3.73356	-0.195963	0
2579.15	-3.73877	-0.195968	0
2579.21	-3.74391	-0.195967	0
2579.27	-3.74912	-0.195963	0
2579.33	-3.7543	-0.195961	0
2579.38	-3.75939	-0.195966	0
2579.44	-3.76445	-0.195963	0
2579.5	-3.76963	-0.195967	0
2579.56	-3.77486	-0.195965	0
2579.61	-3.77997	-0.195967	0
2579.67	-3.78517	-0.195962	0
2579.73	-3.79044	-0.195968	0
2579.8	-3.79569	-0.195964	0
2579.86	-3.80097	-0.19596	0
2579.92	-3.80619	-0.195966	0
2579.98	-3.81138	-0.195965	0
2580.04	-3.81655	-0.195965	0
2580.1	-3.82182	-0.195967	0
2580.16	-3.82696	-0.195961	0
2580.22	-3.83219	-0.19597	0
2580.28	-3.83738	-0.195967	0
2580.35	-3.84257	-0.195959	0
2580.41	-3.84769	-0.195961	0
2580.47	-3.85303	-0.19597	0
2580.53	-3.85825	-0.195962	0
2580.59	-3.8634	-0.195963	0
2580.65	-3.8685	-0.195963	0
2580.72	-3.87365	-0.195962	0
2580.78	-3.87883	-0.195965	0
2580.84	-3.88404	-0.195961	0
2580.9	-3.88917	-0.195962	0
2580.96	-3.89448	-0.195966	0
2581.03	-3.89971	-0.195971	0
2581.09	-3.9049	-0.195964	0
2581.15	-3.91	-0.195961	0
2581.21	-3.91518	-0.195963	0
2581.27	-3.92037	-0.195968	0
2581.33	-3.92569	-0.195965	0
2581.39	-3.93085	-0.195964	0
2581.45	-3.93602	-0.195969	0
2581.52	-3.94122	-0.195962	0
2581.58	-3.94652	-0.195965	0
2581.64	-3.95174	-0.195963	0
2581.7	-3.95693	-0.195962	0
2581.76	-3.96216	-0.195965	0
2581.82	-3.96726	-0.195965	0
2581.88	-3.97258	-0.195967	0
2581.94	-3.9777	-0.195963	0
2582	-3.98283	-0.195964	0
2582.06	-3.98795	-0.195963	0
2582.12	-3.99311	-0.195961	0
2582.18	-3.99853	-0.195963	0
2582.24	-4.00372	-0.195966	0
2582.3	-4.00884	-0.195965	0
2582.35	-4.01403	-0.195967	0
2582.41	-4.01926	-0.195961	0
2582.47	-4.02443	-0.195966	0
2582.53	-4.02961	-0.195965	0
2582.59	-4.03474	-0.195968	0
2582.65	-4.04005	-0.195963	0
2582.71	-4.04524	-0.195965	0
2582.76	-4.05049	-0.19597	0
2582.82	-4.05576	-0.19597	0
2582.88	-4.06099	-0.195963	0
2582.94	-4.06624	-0.195963	0
2583	-4.07138	-0.19596	0
2583.05	-4.07657	-0.195961	0
2583.11	-4.08182	-0.195968	0
2583.17	-4.08696	-0.195962	0
2583.22	-4.09219	-0.195958	0
2583.28	-4.09736	-0.195968	0
2583.34	-4.10261	-0.19596	0
2583.4	-4.1079	-0.195964	0
2583.45	-4.11321	-0.195962	0
2583.51	-4.11844	-0.195965	0
2583.57	-4.12373	-0.195962	0
2583.62	-4.1289	-0.195965	0
2583.68	-4.13415	-0.195964	0
2583.74	-4.13927	-0.195964	0
2583.79	-4.14459	-0.195965	0
2583.85	-4.14979	-0.195963	0
2583.9	-4.15505	-0.195968	0
2583.96	-4.16029	-0.195961	0
2584.02	-4.16555	-0.195965	0
2584.07	-4.17069	-0.195962	0
2584.13	-4.17602	-0.195961	0
2584.19	-4.18125	-0.195974	0
2584.24	-4.18638	-0.195965	0
2584.29	-4.19158	-0.195967	0
2584.35	-4.19679	-0.195968	0
2584.41	-4.20256	-0.195963	0
2584.46	-4.2077	-0.195961	0
2584.51	-4.21293	-0.195968	0
2584.57	-4.21821	-0.195962	0
2584.62	-4.22341	-0.195965	0
2584.68	-4.22868	-0.195968	0
2584.73	-4.23395	-0.195961	0
2584.79	-4.23914	-0.195968	0
2584.84	-4.24443	-0.195966	0
2584.9	-4.24964	-0.195962	0
2584.95	-4.25483	-0.195963	0
2585.01	-4.2601	-0.195968	0
2585.06	-4.26545	-0.195965	0
2585.12	-4.27081	-0.195961	0
2585.17	-4.27598	-0.195959	0
2585.23	-4.28123	-0.195959	0
2585.28	-4.28654	-0.195964	0
2585.34	-4.29173	-0.195967	0
2585.39	-4.29693	-0.195965	0
2585.45	-4.30233	-0.195966	0
2585.5	-4.30741	-0.195964	0
2585.55	-4.31256	-0.195958	0
2585.61	-4.3177	-0.195962	0
2585.66	-4.32297	-0.195966	0
2585.71	-4.32812	-0.195967	0
2585.77	-4.33331	-0.195965	0
2585.82	-4.33849	-0.195968	0
2585.87	-4.34359	-0.195965	0
2585.93	-4.34889	-0.195966	0
2585.98	-4.35418	-0.195962	0
2586.03	-4.35937	-0.19597	0
2586.09	-4.36462	-0.195967	0
2586.14	-4.36993	-0.195961	0
2586.2	-4.37528	-0.195962	0
2586.25	-4.38057	-0.195961	0
2586.31	-4.38578	-0.195964	0
2586.36	-4.39101	-0.195961	0
2586.41	-4.39616	-0.195962	0
2586.46	-4.40132	-0.195964	0
2586.52	-4.40651	-0.195971	0
2586.57	-4.41186	-0.195967	0
2586.63	-4.41707	-0.195961	0
2586.68	-4.42226	-0.195968	0
2586.73	-4.42747	-0.195963	0
2586.79	-4.43259	-0.195969	0
2586.84	-4.43791	-0.195964	0
2586.89	-4.44315	-0.195966	0
2586.95	-4.44826	-0.195964	0
2587	-4.45349	-0.195963	0
2587.05	-4.4588	-0.195963	0
2587.11	-4.46405	-0.195963	0
2587.16	-4.4693	-0.19596	0
2587.22	-4.47453	-0.195963	0
2587.27	-4.47965	-0.195968	0
2587.33	-4.48492	-0.19596	0
2587.38	-4.49013	-0.195967	0
2587.43	-4.49526	-0.195965	0
2587.49	-4.50065	-0.195961	0
2587.54	-4.50588	-0.195964	0
2587.6	-4.51109	-0.195967	0
2587.65	-4.51638	-0.195967	0
2587.71	-4.5215	-0.195965	0
2587.76	-4.52669	-0.195968	0
2587.82	-4.53198	-0.195958	0
2587.87	-4.53723	-0.195961	0
2587.93	-4.54236	-0.195965	0
2587.98	-4.54757	-0.195967	0
2588.04	-4.55273	-0.195963	0
2588.1	-4.55794	-0.195961	0
2588.15	-4.56308	-0.195965	0
2588.21	-4.56823	-0.195965	0
2588.26	-4.57338	-0.195961	0
2588.32	-4.57858	-0.195966	0
2588.38	-4.5839	-0.195965	0
2588.43	-4.58917	-0.195967	0
2588.49	-4.59435	-0.195971	0
2588.55	-4.59952	-0.195963	0
2588.6	-4.60458	-0.195964	0
2588.66	-4.60991	-0.195965	0
2588.72	-4.61516	-0.195969	0
2588.78	-4.62033	-0.195965	0
2588.84	-4.62556	-0.195963	0
2588.9	-4.63075	-0.195968	0
2588.96	-4.63612	-0.19597	0
2589.02	-4.64127	-0.19597	0
2589.08	-4.64656	-0.195963	0
2589.14	-4.65185	-0.195963	0
2589.2	-4.65712	-0.195966	0
2589.26	-4.66223	-0.195965	0
2589.32	-4.66752	-0.195963	0
2589.38	-4.67268	-0.19596	0
2589.44	-4.67783	-0.195965	0
2589.5	-4.6831	-0.195965	0
2589.56	-4.68835	-0.195966	0
2589.62	-4.6936	-0.195965	0
2589.68	-4.69879	-0.195965	0
2589.74	-4.70399	-0.195967	0
2589.8	-4.70924	-0.195963	0
2589.86	-4.7146	-0.195965	0
2589.92	-4.71977	-0.195967	0
2589.99	-4.72495	-0.195963	0
2590.05	-4.73031	-0.195967	0
2590.11	-4.73551	-0.195961	0
2590.17	-4.74081	-0.195966	0
2590.23	-4.74601	-0.19596	0
2590.3	-4.75137	-0.195966	0
2590.36	-4.7567	-0.195969	0
2590.42	-4.76185	-0.195968	0
2590.48	-4.76722	-0.195965	0
2590.54	-4.77252	-0.195962	0
2590.61	-4.77783	-0.195958	0
2590.67	-4.78299	-0.195965	0
2590.73	-4.7881	-0.195965	0
2590.79	-4.79324	-0.195967	0
2590.85	-4.79847	-0.195967	0
2590.91	-4.80366	-0.195965	0
2590.98	-4.80901	-0.195967	0
2591.04	-4.81422	-0.195966	0
2591.1	-4.81962	-0.195969	0
2591.17	-4.82489	-0.195963	0
2591.23	-4.82997	-0.19596	0
2591.29	-4.8351	-0.195958	0
2591.35	-4.84032	-0.195965	0
2591.42	-4.84543	-0.195964	0
2591.48	-4.85082	-0.19596	0
2591.55	-4.85616	-0.195963	0
2591.61	-4.86133	-0.195962	0
2591.68	-4.86655	-0.195965	0
2591.74	-4.8717	-0.195968	0
2591.8	-4.87699	-0.195969	0
2591.87	-4.88232	-0.195972	0
2591.93	-4.88745	-0.195966	0
2592	-4.89266	-0.195959	0
2592.06	-4.89784	-0.195961	0
2592.13	-4.90314	-0.195965	0
2592.2	-4.90841	-0.19596	0
2592.26	-4.91361	-0.195966	0
2592.33	-4.91878	-0.195965	0
2592.4	-4.92411	-0.195965	0
2592.47	-4.92934	-0.195961	0
2592.53	-4.93455	-0.195961	0
2592.6	-4.93982	-0.195968	0
2592.67	-4.94501	-0.195961	0
2592.74	-4.95036	-0.195969	0
2592.81	-4.95547	-0.195962	0
2592.88	-4.96059	-0.195961	0
2592.95	-4.9659	-0.195956	0
2593.02	-4.97111	-0.195963	0
2593.09	-4.97624	-0.195967	0
2593.16	-4.98165	-0.195965	0
2593.23	-4.98678	-0.195968	0
2593.3	-4.99201	-0.195963	0
2593.37	-4.99719	-0.19596	0
2593.44	-5.00234	-0.195962	0
2593.51	-5.00759	-0.195962	0
2593.59	-5.01276	-0.195963	0
2593.66	-5.01817	-0.195966	0
2593.74	-5.02334	-0.195963	0
2593.81	-5.02859	-0.195961	0
2593.89	-5.03388	-0.195963	0
2593.96	-5.03913	-0.195961	0
2594.04	-5.04436	-0.195963	0
2594.11	-5.04955	-0.195961	0
2594.19	-5.05467	-0.195962	0
2594.26	-5.05975	-0.195965	0
2594.34	-5.06488	-0.195963	0
2594.42	-5.07	-0.195963	0
2594.5	-5.07517	-0.195968	0
2594.57	-5.0805	-0.195968	0
2594.65	-5.08583	-0.19596	0
2594.73	-5.09094	-0.195953	0
2594.81	-5.0961	-0.195964	0
2594.89	-5.1014	-0.195967	0
2594.97	-5.10664	-0.195969	0
2595.05	-5.11175	-0.195963	0
2595.14	-5.11704	-0.195963	0
2595.22	-5.12235	-0.195964	0
2595.3	-5.12762	-0.195967	0
2595.39	-5.13279	-0.195965	0
2595.47	-5.13798	-0.195967	0
2595.55	-5.14316	-0.195964	0
2595.64	-5.14827	-0.195965	0
2595.72	-5.15368	-0.195968	0
2595.81	-5.15875	-0.195963	0
2595.89	-5.16393	-0.195972	0
2595.98	-5.16908	-0.195959	0
2596.07	-5.17414	-0.195964	0
2596.15	-5.1793	-0.195967	0
2596.24	-5.18468	-0.195961	0
2596.33	-5.1898	-0.195966	0
2596.43	-5.19503	-0.195968	0
2596.52	-5.20018	-0.195961	0
2596.61	-5.20537	-0.195959	0
2596.7	-5.21062	-0.195966	0
2596.79	-5.21584	-0.195968	0
2596.89	-5.22109	-0.195959	0
2596.99	-5.22643	-0.19597	0
2597.08	-5.23162	-0.195965	0
2597.18	-5.23689	-0.195968	0
2597.28	-5.24214	-0.195962	0
2597.38	-5.24722	-0.19597	0
2597.48	-5.25241	-0.195966	0
2597.58	-5.25757	-0.195965	0
2597.68	-5.26274	-0.195967	0
2597.79	-5.26811	-0.19597	0
2597.89	-5.27326	-0.195964	0
2598	-5.27838	-0.195966	0
2598.1	-5.28353	-0.195965	0
2598.21	-5.28876	-0.195958	0
2598.32	-5.29407	-0.19596	0
2598.43	-5.29934	-0.195963	0
2598.54	-5.30444	-0.195967	0
2598.66	-5.30965	-0.195965	0
2598.77	-5.31477	-0.195967	0
2598.88	-5.31996	-0.195964	0
2599	-5.32509	-0.195969	0
2599.12	-5.33017	-0.195961	0
2599.24	-5.33533	-0.195968	0
2599.37	-5.34054	-0.195963	0
2599.49	-5.34571	-0.195969	0
2599.62	-5.35087	-0.195961	0
2599.75	-5.35608	-0.195968	0
2599.88	-5.36125	-0.19597	0
2600.01	-5.36645	-0.195973	0
2600.15	-5.37166	-0.195963	0
2600.29	-5.37689	-0.195967	0
2600.43	-5.38206	-0.195961	0
2600.57	-5.38725	-0.19596	0
2600.72	-5.39247	-0.195964	0
2600.86	-5.39758	-0.195967	0
2601.02	-5.40272	-0.195963	0
2601.17	-5.40789	-0.195968	0
2601.33	-5.41312	-0.195958	0
2601.48	-5.41832	-0.195965	0
2601.65	-5.42347	-0.195962	0
2601.81	-5.42872	-0.195963	0
2601.98	-5.43391	-0.195961	0
2602.15	-5.43918	-0.195968	0
2602.33	-5.44437	-0.195967	0
2602.5	-5.44947	-0.195968	0
2602.67	-5.45461	-0.195961	0
2602.86	-5.45986	-0.195963	0
2603.04	-5.46499	-0.195959	0
2603.22	-5.47011	-0.195967	0
2603.41	-5.47521	-0.195965	0
2603.6	-5.48046	-0.195964	0
2603.8	-5.48561	-0.195961	0
2603.99	-5.4908	-0.195961	0
2604.19	-5.49594	-0.195958	0
2604.39	-5.50102	-0.195963	0
2604.6	-5.50608	-0.19596	0
2604.81	-5.51123	-0.195966	0
2605.03	-5.51639	-0.195964	0
2605.25	-5.52148	-0.195964	0
2605.48	-5.5266	-0.195964	0
2605.73	-5.53179	-0.19596	0
2605.97	-5.53685	-0.195967	0
2606.24	-5.54199	-0.195965	0
2606.53	-5.54712	-0.195966	0
2606.82	-5.55232	-0.195967	0
2607.12	-5.55739	-0.195966	0
2607.42	-5.56247	-0.195968	0
2607.71	-5.56755	-0.195965	0
2607.99	-5.57269	-0.195964	0
2608.29	-5.57792	-0.195961	0
2608.58	-5.58311	-0.195961	0
2608.88	-5.58824	-0.195961	0
2609.16	-5.59353	-0.195966	0
2609.45	-5.59867	-0.195966	0
2609.75	-5.60384	-0.195963	0
2610.06	-5.609	-0.195963	0
2610.37	-5.61411	-0.195965	0
2610.67	-5.61919	-0.19596	0
2610.98	-5.62429	-0.195965	0
2611.29	-5.62935	-0.195963	0
2611.61	-5.6345	-0.195969	0
2611.95	-5.63964	-0.195966	0
2612.3	-5.64479	-0.195967	0
2612.66	-5.64989	-0.195972	0
2613.04	-5.65503	-0.195963	0
2613.45	-5.66039	-0.195963	0
2613.87	-5.66547	-0.19597	0
2614.33	-5.67062	-0.195967	0
2614.82	-5.67576	-0.195961	0
2615.36	-5.68091	-0.195962	0
2615.94	-5.68607	-0.19597	0
2616.56	-5.69116	-0.195962	0
2617.21	-5.69624	-0.195961	0
2617.92	-5.70134	-0.195968	0
2618.72	-5.70644	-0.195964	0
2619.63	-5.71161	-0.195969	0
2620.72	-5.71671	-0.195963	0
2621.91	-5.72179	-0.195965	0
2623.3	-5.72686	-0.195965	0
2624.93	-5.73198	-0.195962	0
2626.86	-5.73708	-0.195963	0
2629.52	-5.74221	-0.195968	0
2639.24	-5.74536	-0.195966	0
2644.62	-5.74025	-0.195964	0
2648.16	-5.73515	-0.195961	0
2651.04	-5.73001	-0.195966	0
2653.55	-5.72494	-0.195962	0
2655.86	-5.71984	-0.195968	0
2658.01	-5.71474	-0.19596	0
2660.08	-5.70964	-0.195963	0
2662.08	-5.70445	-0.195963	0
2664.01	-5.69937	-0.195967	0
2665.87	-5.69431	-0.195965	0
2667.65	-5.68924	-0.195968	0
2669.35	-5.68412	-0.195971	0
2671.01	-5.679	-0.195968	0
2672.65	-5.67381	-0.195965	0
2674.25	-5.66871	-0.195964	0
2675.8	-5.66362	-0.195967	0
2677.27	-5.65856	-0.195959	0
2678.72	-5.65342	-0.195965	0
2680.18	-5.64827	-0.195966	0
2681.61	-5.64317	-0.195964	0
2683	-5.638	-0.195967	0
2684.29	-5.63288	-0.195967	0
2685.58	-5.62778	-0.195967	0
2686.86	-5.62267	-0.195966	0
2688.11	-5.61755	-0.195967	0
2689.37	-5.61239	-0.195958	0
2690.6	-5.60732	-0.19596	0
2691.79	-5.60214	-0.195963	0
2692.93	-5.59705	-0.195961	0
2694.07	-5.59191	-0.195959	0
2695.17	-5.58674	-0.195965	0
2696.27	-5.58164	-0.195963	0
2697.36	-5.57656	-0.195964	0
2698.31	-5.57139	-0.195964	0
2699.27	-5.56631	-0.19597	0
2700.25	-5.56125	-0.195968	0
2701.21	-5.55613	-0.195968	0
2702.1	-5.55102	-0.195964	0
2703.02	-5.54582	-0.195963	0
2703.92	-5.54061	-0.195963	0
2704.8	-5.53546	-0.195968	0
2705.66	-5.5303	-0.195964	0
2706.5	-5.52519	-0.195962	0
2707.33	-5.52001	-0.195965	0
2708.18	-5.51473	-0.19596	0
2709	-5.50959	-0.19597	0
2709.8	-5.50447	-0.195961	0
2710.57	-5.49936	-0.19597	0
2711.37	-5.49422	-0.195963	0
2712.13	-5.48911	-0.195959	0
2712.89	-5.48403	-0.195969	0
2713.62	-5.47893	-0.195967	0
2714.34	-5.47381	-0.195965	0
2715.06	-5.46864	-0.195968	0
2715.78	-5.46348	-0.195969	0
2716.45	-5.45843	-0.195965	0
2717.15	-5.45327	-0.195963	0
2717.82	-5.4481	-0.195963	0
2718.48	-5.44292	-0.195969	0
2719.13	-5.43783	-0.195968	0
2719.77	-5.43269	-0.195967	0
2720.41	-5.42746	-0.195967	0
2721.02	-5.42238	-0.19597	0
2721.62	-5.4173	-0.195965	0
2722.21	-5.41219	-0.195956	0
2722.8	-5.40705	-0.195971	0
2723.38	-5.40192	-0.195965	0
2723.94	-5.39686	-0.195964	0
2724.49	-5.39168	-0.195971	0
2725.04	-5.38653	-0.195966	0
2725.56	-5.38134	-0.195961	0
2726.09	-5.37618	-0.195962	0
2726.61	-5.37108	-0.195968	0
2727.11	-5.36599	-0.195967	0
2727.59	-5.36087	-0.195966	0
2728.07	-5.35566	-0.195963	0
2728.53	-5.35056	-0.195967	0
2728.99	-5.34539	-0.195972	0
2729.43	-5.34023	-0.195968	0
2729.86	-5.33508	-0.195965	0
2730.27	-5.32996	-0.195963	0
2730.68	-5.32486	-0.19596	0
2731.07	-5.31981	-0.195964	0
2731.45	-5.31463	-0.195965	0
2731.83	-5.30936	-0.195964	0
2732.19	-5.3043	-0.195971	0
2732.54	-5.29909	-0.195965	0
2732.88	-5.2939	-0.195955	0
2733.2	-5.28876	-0.195967	0
2733.52	-5.28363	-0.195963	0
2733.81	-5.27851	-0.195966	0
2734.1	-5.27336	-0.195966	0
2734.37	-5.26818	-0.19597	0
2734.63	-5.26307	-0.195966	0
2734.88	-5.25789	-0.195968	0
2735.13	-5.2527	-0.195963	0
2735.35	-5.24762	-0.195967	0
2735.57	-5.24247	-0.195964	0
2735.78	-5.23731	-0.195965	0
2735.97	-5.23206	-0.195963	0
2736.16	-5.22685	-0.195965	0
2736.34	-5.22168	-0.195968	0
2736.5	-5.2165	-0.195965	0
2736.66	-5.21137	-0.195967	0
2736.81	-5.20625	-0.195965	0
2736.94	-5.2011	-0.195964	0
2737.08	-5.19592	-0.195967	0
2737.2	-5.19075	-0.195965	0
2737.31	-5.1855	-0.195969	0
2737.43	-5.18033	-0.195971	0
2737.53	-5.175	-0.19597	0
2737.63	-5.16971	-0.195965	0
2737.72	-5.16444	-0.195967	0
2737.81	-5.15919	-0.195965	0
2737.89	-5.154	-0.195966	0
2737.96	-5.14875	-0.195961	0
2738.03	-5.14361	-0.195965	0
2738.1	-5.13833	-0.195966	0
2738.16	-5.13321	-0.195964	0
2738.22	-5.12796	-0.195972	0
2738.27	-5.12286	-0.195968	0
2738.32	-5.11765	-0.195965	0
2738.37	-5.11231	-0.195956	0
2738.42	-5.10696	-0.195969	0
2738.46	-5.10173	-0.195963	0
2738.5	-5.0965	-0.195962	0
2738.54	-5.09125	-0.195965	0
2738.58	-5.08588	-0.195971	0
2738.61	-5.08061	-0.195961	0
2738.65	-5.07529	-0.195964	0
2738.68	-5.07006	-0.195967	0
2738.71	-5.06492	-0.195958	0
2738.74	-5.05963	-0.195961	0
2738.77	-5.0544	-0.195964	0
2738.79	-5.04919	-0.195965	0
2738.82	-5.04388	-0.195967	0
2738.84	-5.03865	-0.195961	0
2738.86	-5.03344	-0.19597	0
2738.88	-5.02815	-0.195965	0
2738.91	-5.02292	-0.195968	0
2738.93	-5.01759	-0.195963	0
2738.95	-5.01242	-0.195968	0
2738.96	-5.00706	-0.19597	0
2738.98	-5.00165	-0.19597	0
2739	-4.99642	-0.195961	0
2739.02	-4.99115	-0.195968	0
2739.03	-4.98575	-0.195966	0
2739.05	-4.98048	-0.195972	0
2739.06	-4.97521	-0.195967	0
2739.08	-4.96994	-0.195968	0
2739.09	-4.96454	-0.195969	0
2739.11	-4.95935	-0.195966	0
2739.12	-4.95389	-0.195967	0
2739.13	-4.9486	-0.195964	0
2739.15	-4.9431	-0.195968	0
2739.16	-4.9377	-0.19597	0
2739.17	-4.93241	-0.195972	0
2739.18	-4.92701	-0.195966	0
2739.2	-4.92176	-0.195967	0
2739.21	-4.91624	-0.195967	0
2739.22	-4.91084	-0.195967	0
2739.23	-4.90549	-0.195967	0
2739.24	-4.89992	-0.195965	0
2739.25	-4.89476	-0.195969	0
2739.26	-4.8894	-0.195968	0
2739.27	-4.88405	-0.195968	0
2739.28	-4.87859	-0.195968	0
2739.29	-4.87325	-0.19597	0
2739.3	-4.86775	-0.195965	0
2739.31	-4.86221	-0.195963	0
2739.32	-4.85658	-0.195966	0
2739.33	-4.85129	-0.195965	0
2739.34	-4.84562	-0.195963	0
2739.35	-4.84028	-0.195966	0
2739.36	-4.8347	-0.195965	0
2739.37	-4.82932	-0.195965	0
2739.38	-4.82399	-0.195965	0
2739.39	-4.81869	-0.195968	0
2739.39	-4.81351	-0.195968	0
2739.4	-4.80798	-0.195967	0
2739.41	-4.80257	-0.195963	0
2739.42	-4.79706	-0.195968	0
2739.43	-4.79165	-0.195965	0
2739.44	-4.78638	-0.195972	0
2739.45	-4.78092	-0.195967	0
2739.46	-4.77554	-0.195963	0
2739.46	-4.77004	-0.195964	0
2739.47	-4.76443	-0.195961	0
2739.48	-4.7588	-0.195964	0
2739.49	-4.7536	-0.19597	0
2739.5	-4.74833	-0.195972	0
2739.51	-4.74282	-0.195968	0
2739.51	-4.73738	-0.195969	0
2739.52	-4.73209	-0.195968	0
2739.53	-4.72676	-0.195961	0
2739.54	-4.72107	-0.195974	0
2739.55	-4.71544	-0.195962	0
2739.56	-4.70983	-0.195961	0
2739.56	-4.70433	-0.195969	0
2739.57	-4.69891	-0.195963	0
2739.58	-4.69341	-0.195968	0
2739.59	-4.6877	-0.195961	0
2739.6	-4.68209	-0.195967	0
2739.61	-4.6764	-0.195966	0
2739.61	-4.67086	-0.195968	0
2739.62	-4.66546	-0.195967	0
2739.63	-4.65977	-0.195968	0
2739.64	-4.6541	-0.195965	0
2739.65	-4.6487	-0.19597	0
2739.66	-4.64309	-0.195966	0
2739.66	-4.63759	-0.195965	0
2739.67	-4.63176	-0.195968	0
2739.68	-4.62638	-0.195966	0
2739.69	-4.62092	-0.195971	0
2739.7	-4.61556	-0.195967	0
2739.71	-4.61012	-0.195962	0
2739.72	-4.60471	-0.19596	0
2739.73	-4.5996	-0.195963	0
2739.73	-4.59425	-0.195964	0
2739.74	-4.58906	-0.195962	0
2739.75	-4.58367	-0.195967	0
2739.76	-4.5782	-0.195972	0
2739.78	-4.57275	-0.195968	0
2739.79	-4.56752	-0.195971	0
2739.8	-4.56203	-0.195967	0
2739.81	-4.5566	-0.195963	0
2739.83	-4.55128	-0.195961	0
2739.84	-4.54595	-0.195964	0
2739.86	-4.54062	-0.195968	0
2739.88	-4.53534	-0.195963	0
2739.91	-4.53005	-0.195957	0
2739.94	-4.52487	-0.195961	0
2739.98	-4.51962	-0.195965	0
2740.04	-4.51445	-0.195962	0
2740.17	-4.50911	-0.195966	0
2740.41	-4.50386	-0.195972	0
2740.67	-4.49864	-0.195965	0
2740.93	-4.49353	-0.195964	0
2741.17	-4.48835	-0.195967	0
2741.43	-4.48318	-0.195963	0
2741.71	-4.47808	-0.195966	0
2742.05	-4.47293	-0.195964	0
2742.5	-4.46787	-0.19597	0
2743.39	-4.46269	-0.195962	0
2754.5	-4.45762	-0.195967	0
2761.17	-4.45252	-0.195966	0
2768.15	-4.44742	-0.195964	0
2776	-4.44225	-0.195967	0
2785.02	-4.43717	-0.195965	0
2795.01	-4.43203	-0.195958	0
2806.5	-4.42698	-0.195963	0
2820.57	-4.42188	-0.195964	0
2836.4	-4.41669	-0.195963	0
2854.22	-4.41155	-0.19596	0
2878.28	-4.40641	-0.195963	0
2912.31	-4.40134	-0.195965	0
2959.54	-4.39943	-0.195969	0
3009.54	-4.39931	-0.195965	0
3059.54	-4.4013	-0.195971	0
3109.54	-4.40374	-0.195966	0
3159.23	-4.40674	-0.195965	0
3209.23	-4.40976	-0.195967	0
3259.23	-4.41168	-0.195963	0
3309.23	-4.41375	-0.195967	0
3359.23	-4.41619	-0.195962	0
3409.23	-4.41875	-0.195968	0
3459.23	-4.4218	-0.195968	0
3509.23	-4.42484	-0.195966	0
3559.23	-4.42768	-0.195965	0
3609.23	-4.4311	-0.195967	0
3659.23	-4.43377	-0.195968	0
3706.65	-4.43658	-0.195969	0
3731.23	-4.43807	-0.195968	0
3750.96	-4.43793	-0.19597	0
3770.74	-4.44022	-0.195968	0
3788.82	-4.44026	-0.195969	0
3829.68	-4.4432	-0.19596	0
3876.57	-4.44578	-0.19596	0
3908.88	-4.44723	-0.195965	0
3942.37	-4.44838	-0.195956	0
3981.14	-4.45097	-0.19597	0
4002.76	-4.45113	-0.195966	0
4027.02	-4.45349	-0.195966	0
4046.72	-4.45536	-0.19597	0
4065.37	-4.45578	-0.195963	0
4101.89	-4.45884	-0.195968	0
4129.85	-4.46109	-0.195972	0
4146.42	-4.46208	-0.19597	0
4169.95	-4.46445	-0.195967	0
4212.83	-4.46741	-0.195956	0
4236.92	-4.46844	-0.195962	0
4272.98	-4.47232	-0.195967	0
4286.25	-4.47335	-0.195972	0
4298.86	-4.47436	-0.195967	0
4301.24	-4.47541	-0.195969	0
4319.76	-4.47644	-0.195966	0
4336.65	-4.47757	-0.195967	0
4337.32	-4.47852	-0.195959	0
4338.78	-4.4774	-0.195964	0
4340.6	-4.47846	-0.195972	0
4342.62	-4.47944	-0.195965	0
4343.88	-4.47841	-0.195965	0
4345	-4.47948	-0.195967	0
4345.8	-4.47845	-0.195963	0
4346.58	-4.4795	-0.195964	0
4347.87	-4.47852	-0.195962	0
4351.97	-4.47907	-0.195961	0