File: EXPERIMENTAL/Data/Battery-cycling/E-measurements/C-cell/2024-04-25_E-measurements_sample-LiPF6-electrolyte-01_C-cell_Cu-Li-Cellgard2400-separator_25muL-LiPF6_outside-glovebox_sigma-0.02_added-OCV-0.1s_04_CP_C02.txt
time/s	Ewe/V	I/mA	error
1054.46	0.00632331	-0.19457	0
1054.46	-0.00225636	-0.195959	0
1054.46	-0.00928618	-0.195963	0
1054.46	-0.0147073	-0.195954	0
1054.46	-0.0193457	-0.195964	0
1054.46	-0.0234497	-0.195959	0
1054.46	-0.0272865	-0.195963	0
1054.46	-0.0307414	-0.195956	0
1054.46	-0.0340819	-0.195968	0
1054.46	-0.0370597	-0.195964	0
1054.46	-0.0398847	-0.195957	0
1054.46	-0.0425189	-0.195966	0
1054.46	-0.0449241	-0.195968	0
1054.46	-0.0470238	-0.195964	0
1054.47	-0.0494098	-0.195961	0
1054.47	-0.0514141	-0.195962	0
1054.47	-0.0532466	-0.195961	0
1054.47	-0.055079	-0.195963	0
1054.47	-0.0565488	-0.195958	0
1054.47	-0.058324	-0.195961	0
1054.47	-0.0597366	-0.195964	0
1054.47	-0.0611491	-0.195964	0
1054.47	-0.0624089	-0.195965	0
1054.47	-0.0636306	-0.195966	0
1054.47	-0.0648141	-0.195961	0
1054.47	-0.0658639	-0.195975	0
1054.47	-0.0670092	-0.195959	0
1054.47	-0.0688226	-0.19596	0
1054.47	-0.0705978	-0.195966	0
1054.47	-0.0720676	-0.195963	0
1054.47	-0.0735565	-0.195966	0
1054.47	-0.0748163	-0.195967	0
1054.47	-0.0759998	-0.195964	0
1054.47	-0.0770115	-0.195968	0
1054.47	-0.0783668	-0.195963	0
1054.47	-0.0798938	-0.195968	0
1054.47	-0.0813064	-0.195964	0
1054.47	-0.0824517	-0.195964	0
1054.47	-0.083616	-0.195964	0
1054.47	-0.0848377	-0.195959	0
1054.48	-0.0859066	-0.195964	0
1054.48	-0.0870329	-0.195967	0
1054.48	-0.0880827	-0.195963	0
1054.48	-0.0893044	-0.19596	0
1054.48	-0.090316	-0.195963	0
1054.48	-0.0913468	-0.195963	0
1054.48	-0.0923585	-0.195966	0
1054.48	-0.0934274	-0.195961	0
1054.48	-0.0944964	-0.195966	0
1054.49	-0.0955462	-0.195964	0
1054.49	-0.0966534	-0.195969	0
1054.49	-0.0977032	-0.195961	0
1054.49	-0.0988485	-0.195968	0
1054.49	-0.0999175	-0.195967	0
1054.49	-0.101082	-0.195966	0
1054.49	-0.102189	-0.195968	0
1054.5	-0.103334	-0.195966	0
1054.5	-0.104346	-0.195966	0
1054.5	-0.105434	-0.195969	0
1054.5	-0.106541	-0.195966	0
1054.5	-0.107744	-0.195967	0
1054.5	-0.108755	-0.195964	0
1054.51	-0.109786	-0.195964	0
1054.51	-0.110912	-0.195968	0
1054.51	-0.112134	-0.195961	0
1054.51	-0.113146	-0.195963	0
1054.51	-0.114272	-0.195966	0
1054.52	-0.115379	-0.195968	0
1054.52	-0.116505	-0.195966	0
1054.52	-0.117517	-0.195964	0
1054.52	-0.118529	-0.195963	0
1054.52	-0.11954	-0.195961	0
1054.53	-0.120705	-0.195968	0
1054.53	-0.121716	-0.195961	0
1054.53	-0.122843	-0.195961	0
1054.53	-0.123873	-0.195966	0
1054.53	-0.124942	-0.195966	0
1054.54	-0.125992	-0.195966	0
1054.54	-0.127099	-0.195963	0
1054.54	-0.128149	-0.195971	0
1054.54	-0.129256	-0.195966	0
1054.54	-0.130268	-0.19597	0
1054.55	-0.131337	-0.19596	0
1054.55	-0.13252	-0.195965	0
1054.55	-0.133608	-0.195959	0
1054.55	-0.134677	-0.195965	0
1054.55	-0.135708	-0.195963	0
1054.56	-0.136796	-0.195967	0
1054.56	-0.137808	-0.195965	0
1054.56	-0.138934	-0.195967	0
1054.56	-0.140098	-0.195973	0
1054.57	-0.14111	-0.195959	0
1054.57	-0.142198	-0.195965	0
1054.57	-0.14321	-0.195963	0
1054.57	-0.144241	-0.195967	0
1054.58	-0.145271	-0.195962	0
1054.58	-0.146302	-0.19597	0
1054.58	-0.147447	-0.195964	0
1054.58	-0.148459	-0.195966	0
1054.59	-0.14949	-0.195963	0
1054.59	-0.150597	-0.195965	0
1054.59	-0.151723	-0.195964	0
1054.59	-0.152735	-0.19597	0
1054.6	-0.153823	-0.195968	0
1054.6	-0.154835	-0.195965	0
1054.6	-0.155865	-0.195963	0
1054.61	-0.156992	-0.195964	0
1054.61	-0.158099	-0.195972	0
1054.61	-0.159148	-0.195963	0
1054.61	-0.16016	-0.195968	0
1054.62	-0.161267	-0.195964	0
1054.62	-0.162317	-0.195963	0
1054.62	-0.163386	-0.195967	0
1054.63	-0.164455	-0.195962	0
1054.63	-0.165581	-0.195966	0
1054.63	-0.166688	-0.195963	0
1054.64	-0.167719	-0.195966	0
1054.64	-0.168769	-0.195963	0
1054.64	-0.169933	-0.195968	0
1054.65	-0.170983	-0.195968	0
1054.65	-0.172014	-0.195964	0
1054.65	-0.173045	-0.195964	0
1054.66	-0.174095	-0.195967	0
1054.66	-0.175106	-0.195968	0
1054.66	-0.176175	-0.195958	0
1054.67	-0.177206	-0.195965	0
1054.67	-0.178332	-0.195967	0
1054.67	-0.17942	-0.195966	0
1054.68	-0.18047	-0.195961	0
1054.68	-0.181577	-0.195963	0
1054.68	-0.182608	-0.195964	0
1054.69	-0.183639	-0.195966	0
1054.69	-0.184689	-0.195966	0
1054.7	-0.1857	-0.195964	0
1054.7	-0.186788	-0.195963	0
1054.7	-0.187838	-0.195966	0
1054.71	-0.188907	-0.195964	0
1054.71	-0.189919	-0.195971	0
1054.72	-0.19095	-0.195968	0
1054.72	-0.191961	-0.195966	0
1054.72	-0.193011	-0.195968	0
1054.73	-0.19408	-0.195966	0
1054.73	-0.195206	-0.195963	0
1054.74	-0.196256	-0.195967	0
1054.74	-0.197325	-0.195963	0
1054.75	-0.198356	-0.195966	0
1054.75	-0.199425	-0.195964	0
1054.76	-0.200436	-0.195965	0
1054.76	-0.201486	-0.195974	0
1054.77	-0.202517	-0.195966	0
1054.77	-0.203567	-0.195971	0
1054.78	-0.204598	-0.19596	0
1054.78	-0.205667	-0.195962	0
1054.79	-0.206774	-0.195962	0
1054.79	-0.207843	-0.19597	0
1054.8	-0.208874	-0.19596	0
1054.81	-0.209904	-0.195971	0
1054.81	-0.210935	-0.195966	0
1054.82	-0.212004	-0.195964	0
1054.82	-0.213054	-0.195958	0
1054.83	-0.214104	-0.195961	0
1054.84	-0.215115	-0.195965	0
1054.84	-0.216146	-0.195971	0
1054.85	-0.217158	-0.195965	0
1054.86	-0.218208	-0.195966	0
1054.86	-0.219219	-0.195963	0
1054.87	-0.220269	-0.195966	0
1054.88	-0.221281	-0.195968	0
1054.88	-0.222388	-0.195963	0
1054.89	-0.223419	-0.195964	0
1054.9	-0.224431	-0.195967	0
1054.91	-0.225442	-0.195971	0
1054.92	-0.226511	-0.195963	0
1054.92	-0.227523	-0.195963	0
1054.93	-0.228534	-0.195972	0
1054.94	-0.229699	-0.195964	0
1054.95	-0.230825	-0.19596	0
1054.96	-0.231856	-0.195969	0
1054.97	-0.232887	-0.195969	0
1054.98	-0.233917	-0.195962	0
1054.99	-0.234948	-0.195968	0
1055	-0.235979	-0.195961	0
1055.01	-0.236991	-0.195963	0
1055.02	-0.23806	-0.195962	0
1055.04	-0.239109	-0.195959	0
1055.05	-0.24014	-0.195963	0
1055.06	-0.24119	-0.195959	0
1055.08	-0.242221	-0.195969	0
1055.09	-0.24329	-0.195964	0
1055.11	-0.244301	-0.195963	0
1055.13	-0.245332	-0.195971	0
1055.14	-0.246439	-0.195963	0
1055.16	-0.247451	-0.195963	0
1055.19	-0.248596	-0.195966	0
1055.21	-0.249608	-0.195973	0
1055.24	-0.25062	-0.195968	0
1055.27	-0.25167	-0.19597	0
1055.32	-0.252681	-0.195961	0
1055.4	-0.253731	-0.195965	0
1055.63	-0.252719	-0.195964	0
1055.75	-0.251689	-0.195968	0
1055.85	-0.250677	-0.195961	0
1055.95	-0.249665	-0.195963	0
1056.04	-0.248654	-0.195963	0
1056.13	-0.247642	-0.195971	0
1056.24	-0.246592	-0.19597	0
1056.33	-0.24558	-0.195967	0
1056.44	-0.24455	-0.195968	0
1056.54	-0.243462	-0.19596	0
1056.66	-0.242412	-0.195963	0
1056.78	-0.241381	-0.195967	0
1056.91	-0.24035	-0.195968	0
1057.04	-0.239338	-0.195963	0
1057.18	-0.238327	-0.195966	0
1057.31	-0.237315	-0.195967	0
1057.47	-0.236265	-0.195966	0
1057.64	-0.235254	-0.195971	0
1057.81	-0.234242	-0.195966	0
1057.99	-0.233211	-0.195968	0
1058.18	-0.23218	-0.195964	0
1058.38	-0.231169	-0.195964	0
1058.6	-0.230157	-0.195966	0
1058.82	-0.229145	-0.195966	0
1059.06	-0.228115	-0.19597	0
1059.32	-0.227103	-0.195964	0
1059.6	-0.226072	-0.195967	0
1059.88	-0.22506	-0.195962	0
1060.19	-0.224049	-0.195973	0
1060.51	-0.222999	-0.195964	0
1060.84	-0.221968	-0.195974	0
1061.23	-0.220956	-0.195969	0
1061.61	-0.219945	-0.195972	0
1062.04	-0.218914	-0.195972	0
1062.5	-0.217902	-0.195974	0
1062.97	-0.216891	-0.195969	0
1063.52	-0.215879	-0.195966	0
1064.07	-0.214867	-0.195964	0
1064.68	-0.213856	-0.19597	0
1065.33	-0.212844	-0.195964	0
1066.09	-0.211794	-0.195964	0
1066.87	-0.210744	-0.195972	0
1067.81	-0.209694	-0.195961	0
1068.81	-0.208664	-0.195964	0
1069.92	-0.207614	-0.195974	0
1071.14	-0.206602	-0.19597	0
1072.43	-0.205552	-0.195967	0
1073.95	-0.20454	-0.19597	0
1075.76	-0.203529	-0.195968	0
1077.8	-0.202498	-0.195971	0
1080.17	-0.201486	-0.19597	0
1083.38	-0.200456	-0.19597	0
1087.37	-0.199444	-0.195965	0
1092.55	-0.198413	-0.195972	0
1099.56	-0.197401	-0.195967	0
1107.85	-0.19639	-0.195965	0
1117.82	-0.195359	-0.195972	0
1126.42	-0.194347	-0.195964	0
1136.42	-0.193565	-0.195964	0
1143.47	-0.192553	-0.195968	0
1151.81	-0.191522	-0.195969	0
1159.32	-0.190511	-0.195971	0
1167.45	-0.189499	-0.195971	0
1174.85	-0.188468	-0.195967	0
1181.98	-0.187456	-0.195967	0
1189.1	-0.186445	-0.195963	0
1195.84	-0.185433	-0.195971	0
1202.77	-0.184383	-0.195971	0
1209.19	-0.183372	-0.195965	0
1215.59	-0.182303	-0.195969	0
1222.8	-0.181272	-0.195971	0
1229.42	-0.18026	-0.19597	0
1235.66	-0.179248	-0.195971	0
1242.46	-0.178237	-0.195971	0
1248.87	-0.177206	-0.195975	0
1255.43	-0.176194	-0.195964	0
1262.41	-0.175144	-0.19597	0
1269.11	-0.174133	-0.195971	0
1275.74	-0.173121	-0.195973	0
1282.56	-0.172071	-0.195966	0
1289.79	-0.17106	-0.195973	0
1296.64	-0.170029	-0.195966	0
1303.52	-0.168998	-0.195968	0
1310.81	-0.167986	-0.19597	0
1318.02	-0.166956	-0.195973	0
1325.44	-0.165944	-0.195968	0
1333.08	-0.164913	-0.195977	0
1340.36	-0.163901	-0.195971	0
1348.02	-0.162852	-0.195972	0
1356.1	-0.161821	-0.195971	0
1364.11	-0.160809	-0.195969	0
1371.8	-0.15974	-0.19597	0
1380.49	-0.158671	-0.19597	0
1388.75	-0.15766	-0.195968	0
1397.32	-0.156648	-0.195971	0
1406.28	-0.155636	-0.195966	0
1414.45	-0.154625	-0.195972	0
1423.6	-0.153613	-0.195968	0
1432.34	-0.152601	-0.195973	0
1441.46	-0.15157	-0.19597	0
1450.44	-0.150559	-0.195974	0
1459.72	-0.149547	-0.19597	0
1469.07	-0.148516	-0.195974	0
1478.76	-0.147505	-0.195968	0
1488.3	-0.146493	-0.195973	0
1498.14	-0.145443	-0.195967	0
1508.14	-0.144622	-0.195975	0
1516.54	-0.143572	-0.195969	0
1526.46	-0.142523	-0.195974	0
1536.46	-0.141893	-0.195977	0
1544.2	-0.140862	-0.195969	0
1554.2	-0.140251	-0.195972	0
1562.48	-0.139239	-0.195969	0
1572.48	-0.138686	-0.195966	0
1579.94	-0.137655	-0.195968	0
1589.94	-0.137025	-0.195971	0
1599.58	-0.135994	-0.195969	0
1609.58	-0.135403	-0.195971	0
1618.95	-0.134353	-0.195961	0
1628.95	-0.133704	-0.19597	0
1638.95	-0.132959	-0.19597	0
1648.95	-0.132329	-0.195969	0
1658.56	-0.131299	-0.195964	0
1668.56	-0.130783	-0.195969	0
1678.56	-0.130077	-0.195968	0
1688.56	-0.129447	-0.195968	0
1698.32	-0.128416	-0.195964	0
1708.32	-0.127901	-0.195975	0
1718.32	-0.127176	-0.19597	0
1728.32	-0.126679	-0.195966	0
1738.32	-0.125954	-0.195975	0
1748.32	-0.125419	-0.195971	0
1758.32	-0.124847	-0.195964	0
1768.32	-0.12416	-0.19597	0
1778.32	-0.123702	-0.195966	0
1788.32	-0.123091	-0.195973	0
1798.32	-0.122442	-0.195968	0
1808.32	-0.121964	-0.195969	0
1818.32	-0.121335	-0.195968	0
1828.32	-0.120876	-0.195971	0
1838.32	-0.120285	-0.195971	0
1848.32	-0.11975	-0.195969	0
1858.32	-0.119178	-0.195967	0
1868.32	-0.118662	-0.19597	0
1878.32	-0.118395	-0.195968	0
1888.32	-0.117784	-0.195971	0
1898.32	-0.117307	-0.195968	0
1908.32	-0.116906	-0.195966	0
1918.32	-0.116391	-0.195964	0
1928.32	-0.115913	-0.195974	0
1938.32	-0.115417	-0.195967	0
1948.32	-0.115016	-0.195965	0
1958.32	-0.114692	-0.195973	0
1968.32	-0.114272	-0.195964	0
1978.32	-0.113814	-0.195968	0
1988.32	-0.11326	-0.195977	0
1998.32	-0.112821	-0.195968	0
2008.32	-0.112458	-0.195969	0
2018.32	-0.112153	-0.195965	0
2028.32	-0.111886	-0.195975	0
2038.32	-0.111351	-0.195969	0
2048.32	-0.110912	-0.195963	0
2058.32	-0.110511	-0.19597	0
2068.32	-0.110244	-0.195968	0
2078.32	-0.109882	-0.195967	0
2088.32	-0.109557	-0.195972	0
2098.32	-0.109271	-0.195971	0
2108.32	-0.108832	-0.195966	0
2118.32	-0.108393	-0.195973	0
2128.32	-0.10803	-0.195968	0
2138.32	-0.107839	-0.195973	0
2148.32	-0.1074	-0.195969	0
2158.32	-0.107056	-0.195967	0
2168.32	-0.106732	-0.195973	0
2178.32	-0.106465	-0.195968	0
2188.32	-0.106255	-0.195972	0
2198.32	-0.10593	-0.195973	0
2208.32	-0.10572	-0.19597	0
2218.32	-0.105434	-0.195975	0
2228.32	-0.105129	-0.195971	0
2238.32	-0.104919	-0.195968	0
2248.32	-0.104594	-0.195975	0
2258.32	-0.104327	-0.195971	0
2268.32	-0.104117	-0.195973	0
2278.32	-0.103888	-0.195975	0
2288.32	-0.103563	-0.195978	0
2298.32	-0.103277	-0.195968	0
2308.32	-0.103086	-0.195972	0
2318.32	-0.102781	-0.195972	0
2328.32	-0.10259	-0.19597	0
2338.32	-0.102304	-0.195971	0
2348.32	-0.102074	-0.195973	0
2358.32	-0.101864	-0.195967	0
2368.32	-0.10154	-0.195965	0
2378.32	-0.101425	-0.195975	0
2388.32	-0.101177	-0.195973	0
2398.32	-0.10091	-0.19597	0
2408.32	-0.100624	-0.195973	0
2418.32	-0.100471	-0.195968	0
2428.32	-0.100261	-0.195974	0
2438.32	-0.100013	-0.195974	0
2448.32	-0.0997266	-0.195977	0
2458.32	-0.099593	-0.195968	0
2468.32	-0.0993639	-0.195972	0
2478.32	-0.099173	-0.195975	0
2488.32	-0.098944	-0.195972	0
2498.32	-0.0987722	-0.195965	0
2508.32	-0.0984286	-0.195971	0
2518.32	-0.0981995	-0.195972	0
2528.32	-0.0980659	-0.195971	0
2538.32	-0.0979514	-0.195975	0
2548.32	-0.0977032	-0.19597	0
2558.32	-0.0975314	-0.195969	0
2568.32	-0.0972451	-0.195968	0
2578.32	-0.0972069	-0.195972	0
2588.32	-0.096997	-0.195964	0
2598.32	-0.0966915	-0.195972	0
2608.32	-0.0965579	-0.195965	0
2618.32	-0.0962907	-0.195964	0
2628.32	-0.0961571	-0.195974	0
2638.32	-0.0959471	-0.195971	0
2648.32	-0.0958326	-0.195977	0
2658.32	-0.0956608	-0.195973	0
2668.32	-0.0955844	-0.19597	0
2678.32	-0.0954317	-0.195966	0
2688.32	-0.0951645	-0.195964	0
2698.32	-0.09484	-0.195971	0
2708.32	-0.0947636	-0.195967	0
2718.32	-0.0945918	-0.195964	0
2728.32	-0.0943628	-0.195966	0
2738.32	-0.0943437	-0.195979	0
2748.32	-0.0942101	-0.195971	0
2758.32	-0.0939428	-0.195974	0
2768.32	-0.0939047	-0.195968	0
2778.32	-0.0935992	-0.195975	0
2788.32	-0.0936374	-0.195973	0
2798.32	-0.0932747	-0.195972	0
2808.32	-0.0932175	-0.195971	0
2818.32	-0.0928739	-0.195971	0
2828.32	-0.0927021	-0.195968	0
2838.32	-0.0926257	-0.19597	0
2848.32	-0.0924539	-0.19597	0
2854.46	-0.0922631	-0.195972	0