File: EXPERIMENTAL/Data/Battery-cycling/E-measurements/C-cell/2024-04-25_E-measurements_sample-Ionic-electrolyte-01_C-cell_Cu-Li-Cellgard2400-separator_25muL-ionic-electrolyte_outside-glovebox_sigma-0.02_added-OCV-0.1s_04_CP_C01.txt
time/s	Ewe/V	I/mA	error
1690.76	-0.426289	-0.193764	0
1690.76	-0.775586	-0.195958	0
1690.77	-0.869743	-0.195958	0
1690.77	-0.923026	-0.195956	0
1690.77	-0.961036	-0.195962	0
1690.78	-0.992841	-0.195965	0
1690.78	-1.02165	-0.195963	0
1690.79	-1.04836	-0.195964	0
1690.79	-1.0732	-0.195963	0
1690.79	-1.09664	-0.195961	0
1690.8	-1.12033	-0.195968	0
1690.8	-1.14171	-0.195962	0
1690.81	-1.16628	-0.195968	0
1690.81	-1.19274	-0.195957	0
1690.82	-1.22779	-0.195963	0
1690.83	-1.26113	-0.195968	0
1690.83	-1.29083	-0.19596	0
1690.84	-1.31773	-0.195964	0
1690.85	-1.3416	-0.195965	0
1690.86	-1.36386	-0.195963	0
1690.86	-1.38619	-0.195958	0
1690.87	-1.41067	-0.195961	0
1690.89	-1.43612	-0.195967	0
1690.9	-1.46048	-0.195963	0
1690.91	-1.48451	-0.195963	0
1690.92	-1.50803	-0.195962	0
1690.93	-1.53012	-0.195962	0
1690.94	-1.55217	-0.19596	0
1690.96	-1.57491	-0.195963	0
1690.97	-1.59765	-0.195968	0
1690.99	-1.62002	-0.195965	0
1691	-1.64213	-0.195961	0
1691.02	-1.66376	-0.195962	0
1691.04	-1.68541	-0.19596	0
1691.06	-1.70646	-0.195962	0
1691.08	-1.72775	-0.19596	0
1691.1	-1.7486	-0.195963	0
1691.12	-1.7703	-0.195966	0
1691.14	-1.79174	-0.195963	0
1691.16	-1.81324	-0.195967	0
1691.19	-1.83424	-0.195965	0
1691.21	-1.8557	-0.195961	0
1691.23	-1.87655	-0.195962	0
1691.26	-1.89701	-0.195963	0
1691.28	-1.91826	-0.195967	0
1691.31	-1.93947	-0.195958	0
1691.34	-1.96068	-0.19596	0
1691.37	-1.98124	-0.195965	0
1691.39	-2.00224	-0.195959	0
1691.42	-2.02336	-0.195963	0
1691.45	-2.04407	-0.195964	0
1691.48	-2.06455	-0.195968	0
1691.5	-2.08529	-0.195965	0
1691.53	-2.10625	-0.195963	0
1691.56	-2.12694	-0.195968	0
1691.59	-2.14747	-0.195963	0
1691.62	-2.16833	-0.195964	0
1691.65	-2.18844	-0.195965	0
1691.68	-2.20886	-0.195963	0
1691.71	-2.23014	-0.195968	0
1691.74	-2.25158	-0.195968	0
1691.77	-2.27253	-0.195962	0
1691.8	-2.2928	-0.19596	0
1691.83	-2.31393	-0.195963	0
1691.86	-2.33444	-0.195968	0
1691.89	-2.35534	-0.195959	0
1691.93	-2.37619	-0.195967	0
1691.96	-2.3974	-0.195964	0
1691.99	-2.41838	-0.195955	0
1692.02	-2.43921	-0.195967	0
1692.05	-2.46013	-0.195963	0
1692.09	-2.48129	-0.19596	0
1692.12	-2.50181	-0.195958	0
1692.15	-2.5222	-0.195964	0
1692.18	-2.5431	-0.195961	0
1692.21	-2.56397	-0.195962	0
1692.24	-2.58426	-0.19596	0
1692.28	-2.60526	-0.195966	0
1692.31	-2.62668	-0.19596	0
1692.34	-2.64772	-0.195963	0
1692.37	-2.66821	-0.195962	0
1692.4	-2.68904	-0.195967	0
1692.44	-2.70994	-0.195967	0
1692.47	-2.73104	-0.195958	0
1692.5	-2.75162	-0.195959	0
1692.53	-2.77242	-0.195962	0
1692.56	-2.79293	-0.195964	0
1692.6	-2.8141	-0.195966	0
1692.63	-2.83499	-0.195965	0
1692.66	-2.85589	-0.195962	0
1692.69	-2.87586	-0.195962	0
1692.73	-2.8968	-0.195963	0
1692.76	-2.91702	-0.195965	0
1692.79	-2.93793	-0.195961	0
1692.82	-2.95906	-0.195963	0
1692.85	-2.9792	-0.195961	0
1692.89	-3.00028	-0.19596	0
1692.92	-3.0207	-0.195961	0
1692.95	-3.04111	-0.195963	0
1692.98	-3.0623	-0.195963	0
1693.01	-3.08319	-0.195971	0
1693.05	-3.10396	-0.195966	0
1693.08	-3.1249	-0.195964	0
1693.11	-3.14585	-0.195963	0
1693.14	-3.16658	-0.195959	0
1693.17	-3.18722	-0.195965	0
1693.21	-3.20743	-0.195966	0
1693.24	-3.22777	-0.195963	0
1693.27	-3.24878	-0.195962	0
1693.3	-3.26935	-0.195958	0
1693.33	-3.28968	-0.19596	0
1693.37	-3.31039	-0.195967	0
1693.4	-3.33068	-0.19596	0
1693.43	-3.3514	-0.195967	0
1693.47	-3.37225	-0.195966	0
1693.5	-3.39252	-0.195961	0
1693.53	-3.41314	-0.195959	0
1693.57	-3.4337	-0.195964	0
1693.6	-3.45439	-0.195965	0
1693.63	-3.47457	-0.19596	0
1693.67	-3.49573	-0.195967	0
1693.7	-3.51598	-0.195964	0
1693.74	-3.53719	-0.195963	0
1693.77	-3.55794	-0.195966	0
1693.81	-3.57847	-0.195961	0
1693.84	-3.59903	-0.195961	0
1693.88	-3.61949	-0.195972	0
1693.92	-3.63992	-0.195962	0
1693.95	-3.66022	-0.195967	0
1693.99	-3.68102	-0.195963	0
1694.03	-3.70218	-0.19596	0
1694.07	-3.72262	-0.195968	0
1694.1	-3.74339	-0.195958	0
1694.14	-3.76403	-0.195963	0
1694.18	-3.78471	-0.195962	0
1694.22	-3.80538	-0.195967	0
1694.26	-3.82606	-0.195964	0
1694.29	-3.84616	-0.195964	0
1694.33	-3.86623	-0.195962	0
1694.37	-3.88631	-0.195962	0
1694.41	-3.9066	-0.195966	0
1694.45	-3.92688	-0.195961	0
1694.49	-3.94708	-0.195963	0
1694.53	-3.96705	-0.195969	0
1694.57	-3.98778	-0.195968	0
1694.61	-4.00817	-0.195965	0
1694.65	-4.02877	-0.195963	0
1694.7	-4.04948	-0.195967	0
1694.74	-4.07016	-0.195963	0
1694.78	-4.09041	-0.195967	0
1694.82	-4.11099	-0.195967	0
1694.87	-4.13129	-0.195965	0
1694.91	-4.15185	-0.19596	0
1694.95	-4.17208	-0.195964	0
1695	-4.1923	-0.195965	0
1695.04	-4.21337	-0.195965	0
1695.08	-4.23379	-0.195963	0
1695.13	-4.25407	-0.195965	0
1695.17	-4.27484	-0.195961	0
1695.21	-4.29574	-0.19596	0
1695.26	-4.31596	-0.195957	0
1695.3	-4.33662	-0.195964	0
1695.35	-4.35695	-0.195958	0
1695.39	-4.37738	-0.195961	0
1695.44	-4.39761	-0.195962	0
1695.48	-4.4181	-0.195958	0
1695.53	-4.43818	-0.195958	0
1695.57	-4.45861	-0.195959	0
1695.62	-4.47928	-0.195962	0
1695.66	-4.49981	-0.195965	0
1695.71	-4.52066	-0.195957	0
1695.75	-4.54099	-0.195965	0
1695.8	-4.56126	-0.195962	0
1695.85	-4.58249	-0.195958	0
1695.89	-4.60345	-0.195963	0
1695.94	-4.62361	-0.195955	0
1695.98	-4.6441	-0.195951	0
1696.03	-4.66458	-0.195967	0
1696.07	-4.68463	-0.195961	0
1696.12	-4.70542	-0.195958	0
1696.17	-4.72548	-0.195958	0
1696.21	-4.74555	-0.195948	0
1696.26	-4.76622	-0.195934	0
1696.31	-4.78747	-0.195908	0
1696.36	-4.80775	-0.195884	0
1696.41	-4.82817	-0.195846	0
1696.46	-4.84837	-0.1958	0
1696.5	-4.8687	-0.195774	0
1696.55	-4.88923	-0.195759	0
1696.6	-4.90941	-0.195764	0
1696.65	-4.92947	-0.195755	0
1696.7	-4.9499	-0.195757	0
1696.75	-4.96998	-0.19575	0
1696.8	-4.99031	-0.195752	0
1696.85	-5.01063	-0.195749	0
1696.9	-5.03157	-0.195756	0
1696.95	-5.05171	-0.195755	0
1697	-5.07214	-0.19575	0
1697.05	-5.09253	-0.195769	0
1697.1	-5.11263	-0.195758	0
1697.15	-5.13313	-0.195755	0
1697.21	-5.15375	-0.195755	0
1697.26	-5.17452	-0.19577	0
1697.31	-5.19453	-0.195767	0
1697.36	-5.21465	-0.195755	0
1697.42	-5.23489	-0.195769	0
1697.47	-5.2553	-0.195767	0
1697.53	-5.27546	-0.195765	0
1697.58	-5.29583	-0.195776	0
1697.64	-5.31635	-0.195771	0
1697.69	-5.33638	-0.195777	0
1697.75	-5.35698	-0.195781	0
1697.8	-5.37731	-0.195776	0
1697.86	-5.39751	-0.195779	0
1697.92	-5.4177	-0.195784	0
1697.98	-5.43802	-0.195785	0
1698.04	-5.45841	-0.195791	0
1698.1	-5.47885	-0.195795	0
1698.16	-5.49886	-0.195794	0
1698.22	-5.51946	-0.19579	0
1698.29	-5.53962	-0.195797	0
1698.35	-5.56052	-0.195795	0
1698.42	-5.58082	-0.195802	0
1698.48	-5.6009	-0.195801	0
1698.55	-5.62106	-0.195816	0
1698.61	-5.64134	-0.195805	0
1698.68	-5.66159	-0.195807	0
1698.75	-5.68131	-0.1958	0
1698.82	-5.70155	-0.195811	0
1698.9	-5.72207	-0.195814	0
1698.97	-5.74206	-0.195818	0
1699.04	-5.76211	-0.195818	0
1699.12	-5.78185	-0.195826	0
1699.19	-5.80178	-0.195825	0
1699.27	-5.82194	-0.195826	0
1699.35	-5.84219	-0.195832	0
1699.43	-5.86245	-0.195826	0
1699.52	-5.88249	-0.195842	0
1699.6	-5.90252	-0.195833	0
1699.69	-5.92259	-0.195837	0
1699.78	-5.94223	-0.195851	0
1699.88	-5.96193	-0.195849	0
1700	-5.98186	-0.195874	0
1700.13	-6.00187	-0.195876	0
1700.28	-6.02207	-0.195889	0
1700.48	-6.04183	-0.195906	0
1700.75	-6.06145	-0.19592	0
1701.13	-6.08112	-0.195933	0
1701.49	-6.10071	-0.195931	0
1701.8	-6.12025	-0.195937	0
1702.07	-6.13994	-0.195925	0
1702.34	-6.15979	-0.195931	0
1702.61	-6.1794	-0.195931	0
1702.89	-6.19912	-0.19593	0
1703.17	-6.21902	-0.19593	0
1703.47	-6.23912	-0.195928	0
1703.79	-6.25901	-0.195926	0
1704.13	-6.27908	-0.19593	0
1704.48	-6.2989	-0.195928	0
1704.87	-6.31864	-0.195936	0
1705.27	-6.33853	-0.195939	0
1705.69	-6.35819	-0.19594	0
1706.14	-6.37772	-0.195944	0
1706.61	-6.39744	-0.195939	0
1707.11	-6.41711	-0.195943	0
1707.65	-6.43689	-0.19595	0
1708.2	-6.45649	-0.195943	0
1708.78	-6.47633	-0.195945	0
1709.4	-6.49599	-0.195953	0
1710.05	-6.5159	-0.195946	0
1710.72	-6.53574	-0.195947	0
1711.42	-6.55567	-0.195951	0
1712.14	-6.57545	-0.195946	0
1712.87	-6.59523	-0.195951	0
1713.65	-6.615	-0.195951	0
1714.47	-6.63452	-0.195955	0
1715.35	-6.65443	-0.195949	0
1716.31	-6.67409	-0.195955	0
1717.29	-6.69372	-0.195953	0
1718.32	-6.71338	-0.195956	0
1719.41	-6.73339	-0.19595	0
1720.59	-6.7533	-0.195955	0
1721.8	-6.77331	-0.195953	0
1723.04	-6.79312	-0.195956	0
1724.35	-6.81254	-0.195961	0
1725.76	-6.83217	-0.195956	0
1727.3	-6.85179	-0.195958	0
1729.07	-6.87144	-0.195954	0
1730.81	-6.88919	-0.195957	0
1732.47	-6.9088	-0.195956	0
1734.3	-6.92842	-0.195954	0
1736.12	-6.94801	-0.195958	0
1737.87	-6.96756	-0.19596	0
1739.67	-6.98722	-0.195954	0
1741.67	-7.00488	-0.195957	0
1741.95	-6.98707	-0.195964	0
1743.6	-6.99837	-0.195967	0
1745.49	-7.01807	-0.195961	0
1747.56	-7.03795	-0.195956	0
1749.5	-7.05763	-0.195958	0
1751.36	-7.07514	-0.19596	0
1753.45	-7.09471	-0.195957	0
1755.46	-7.11433	-0.195958	0
1757.74	-7.13399	-0.195956	0
1759.81	-7.1537	-0.195957	0
1762.13	-7.17336	-0.195961	0
1764.41	-7.19299	-0.195964	0
1766.73	-7.21292	-0.195965	0
1768.75	-7.22414	-0.195963	0
1771.09	-7.24377	-0.195956	0
1773.76	-7.26328	-0.19596	0
1776.78	-7.28283	-0.195966	0
1779.52	-7.30232	-0.195965	0
1782.38	-7.32202	-0.195956	0
1785.32	-7.3417	-0.195961	0
1787.64	-7.36129	-0.19596	0
1790.2	-7.38082	-0.195965	0
1793.33	-7.40049	-0.195961	0
1795.85	-7.42002	-0.19596	0
1797.92	-7.42914	-0.195965	0
1801.24	-7.4486	-0.195963	0
1804.32	-7.46824	-0.195963	0
1808.8	-7.48794	-0.195967	0
1812.53	-7.50348	-0.19597	0
1816.87	-7.52332	-0.195968	0
1821.6	-7.54283	-0.195962	0
1826.48	-7.56226	-0.195956	0
1831.79	-7.58185	-0.195959	0
1837.44	-7.59922	-0.195965	0
1837.47	-7.57717	-0.195958	0
1841.23	-7.58214	-0.195965	0
1847.52	-7.59785	-0.195958	0
1857.31	-7.61108	-0.195966	0
1865.66	-7.61207	-0.195972	0
1875.63	-7.63162	-0.195958	0
1881.83	-7.64073	-0.195969	0
1884.14	-7.64779	-0.195963	0
1885.67	-7.65497	-0.195958	0
1889.34	-7.67452	-0.195959	0
1892.76	-7.69435	-0.195963	0
1896.76	-7.71381	-0.195965	0
1900.9	-7.73355	-0.195961	0
1904.64	-7.75312	-0.19596	0
1905.89	-7.76072	-0.19596	0
1906.73	-7.74538	-0.195959	0
1908.73	-7.76511	-0.19596	0
1910.98	-7.78488	-0.195963	0
1913.3	-7.80451	-0.195961	0
1916.16	-7.82398	-0.195961	0
1916.61	-7.80976	-0.195958	0
1918.01	-7.82958	-0.195961	0
1921.13	-7.84909	-0.195965	0
1924.23	-7.86856	-0.195963	0
1926.05	-7.85905	-0.195958	0
1926.23	-7.83931	-0.195961	0
1926.85	-7.81974	-0.195969	0
1928.18	-7.81667	-0.195967	0
1928.38	-7.79754	-0.195966	0
1928.48	-7.78494	-0.195966	0
1928.66	-7.80495	-0.195963	0
1929.33	-7.80384	-0.195962	0
1929.85	-7.82341	-0.195963	0
1930.66	-7.843	-0.195961	0
1931.63	-7.8627	-0.195964	0
1932.68	-7.88026	-0.195962	0
1933.76	-7.89998	-0.195958	0
1935.76	-7.91963	-0.195963	0
1937.34	-7.9298	-0.195961	0
1937.35	-7.91697	-0.19596	0
1937.49	-7.9367	-0.195964	0
1939.94	-7.95226	-0.19596	0
1941.82	-7.96573	-0.195965	0
1943.02	-7.96243	-0.195958	0
1944.56	-7.9677	-0.19596	0
1945.07	-7.96027	-0.195961	0
1945.99	-7.96734	-0.195958	0
1946.05	-7.94702	-0.195968	0
1946.17	-7.93952	-0.195962	0
1946.46	-7.95922	-0.195966	0
1947	-7.95598	-0.195965	0
1947.99	-7.97138	-0.195968	0
1948.92	-7.99112	-0.195966	0
1949.9	-8.01062	-0.195961	0
1950.88	-8.0302	-0.195961	0
1953.85	-8.04133	-0.195961	0
1955.92	-8.06096	-0.195963	0
1957.18	-8.06797	-0.195958	0
1958.48	-8.08757	-0.195962	0
1959.56	-8.10712	-0.195961	0
1961.57	-8.10825	-0.195962	0
1961.59	-8.08688	-0.195962	0
1961.69	-8.07291	-0.195961	0
1961.93	-8.09284	-0.195962	0
1962.57	-8.11235	-0.195963	0
1963.37	-8.13205	-0.195958	0
1964.44	-8.15166	-0.195961	0
1965.62	-8.17127	-0.195958	0
1966.35	-8.19099	-0.195953	0
1966.71	-8.21072	-0.195944	0
1967.38	-8.23048	-0.195951	0
1968.73	-8.2502	-0.195952	0
1969.62	-8.23539	-0.19596	0
1971.04	-8.24064	-0.19596	0
1971.86	-8.22728	-0.195965	0
1972.17	-8.20715	-0.195958	0
1973.35	-8.21437	-0.195967	0
1974.37	-8.21302	-0.195965	0
1975.39	-8.23314	-0.19596	0
1976.68	-8.23001	-0.195962	0
1976.91	-8.23676	-0.195965	0
1977.35	-8.25664	-0.195963	0
1977.89	-8.25946	-0.195968	0
1977.9	-8.23489	-0.195965	0
1977.94	-8.21426	-0.195965	0
1978.56	-8.23003	-0.195963	0
1979.15	-8.24978	-0.195964	0
1979.71	-8.26742	-0.195966	0
1980.15	-8.28741	-0.195958	0
1980.77	-8.3074	-0.195953	0
1981.53	-8.32712	-0.195955	0
1982.47	-8.34028	-0.195951	0
1982.74	-8.35855	-0.195954	0
1983.81	-8.36807	-0.195959	0
1985.35	-8.38583	-0.195958	0
1986.94	-8.40549	-0.195958	0
1988.16	-8.42515	-0.195953	0
1991.1	-8.44489	-0.195965	0
1992.78	-8.46446	-0.195961	0
1995.56	-8.48417	-0.195959	0
1997.31	-8.50211	-0.195962	0
1999.63	-8.49096	-0.195961	0
2000.96	-8.50242	-0.19596	0
2001.48	-8.50528	-0.195961	0
2001.76	-8.504	-0.19596	0
2002.62	-8.52176	-0.195961	0
2003.88	-8.53968	-0.195954	0
2004.69	-8.55959	-0.195953	0
2005.61	-8.57964	-0.195957	0
2006.34	-8.59938	-0.195953	0
2007.34	-8.60566	-0.195954	0
2007.94	-8.61901	-0.195956	0
2008.39	-8.62172	-0.195964	0
2008.95	-8.64126	-0.195952	0
2010.09	-8.66095	-0.195954	0
2011.54	-8.68059	-0.195955	0
2012.46	-8.70014	-0.195952	0
2013.29	-8.71977	-0.195959	0
2014.15	-8.7396	-0.195954	0
2015.25	-8.7594	-0.195956	0
2018.08	-8.77918	-0.195962	0
2019.42	-8.79682	-0.195959	0
2019.99	-8.80808	-0.19596	0
2021.05	-8.82778	-0.195959	0
2023.58	-8.83907	-0.195966	0
2025.29	-8.85883	-0.195957	0
2026.49	-8.85988	-0.195959	0
2027.01	-8.85043	-0.195962	0
2027.07	-8.8296	-0.195961	0
2027.44	-8.83672	-0.195965	0
2027.78	-8.83918	-0.195966	0
2028.58	-8.85904	-0.195963	0
2029.63	-8.87895	-0.195968	0
2030.71	-8.89029	-0.195958	0
2031.24	-8.90562	-0.195963	0
2031.44	-8.90388	-0.195958	0
2031.81	-8.924	-0.195956	0
2032.26	-8.92276	-0.195958	0
2033.05	-8.94262	-0.195954	0
2033.72	-8.96251	-0.195951	0
2034.16	-8.98026	-0.195947	0
2034.93	-8.98141	-0.195959	0
2035.5	-9.00125	-0.195951	0
2036.48	-9.02099	-0.195955	0
2037.05	-9.01089	-0.195963	0
2037.7	-9.03065	-0.195953	0
2038.32	-9.05021	-0.195954	0
2038.88	-9.07036	-0.195953	0
2039.46	-9.09021	-0.195949	0
2040.1	-9.10625	-0.195947	0
2040.48	-9.10516	-0.195951	0
2041.32	-9.1249	-0.195958	0
2042.1	-9.1446	-0.195953	0
2042.25	-9.13908	-0.195962	0
2042.46	-9.11598	-0.195959	0
2042.74	-9.09773	-0.195963	0
2044.32	-9.11726	-0.195956	0
2046.4	-9.11404	-0.195964	0
2047.18	-9.13366	-0.19596	0
2047.74	-9.14355	-0.195967	0
2049.33	-9.15321	-0.195961	0
2050.23	-9.17331	-0.195961	0
2050.88	-9.18255	-0.195963	0
2052.72	-9.17727	-0.195959	0
2053.63	-9.17513	-0.195966	0
2054.27	-9.19494	-0.195958	0
2054.55	-9.21445	-0.19595	0
2055.37	-9.23194	-0.195958	0
2056.23	-9.24746	-0.195959	0
2056.73	-9.25878	-0.195955	0
2057.06	-9.25128	-0.195959	0
2057.65	-9.26023	-0.195958	0
2058.06	-9.25336	-0.195958	0
2058.08	-9.23076	-0.195965	0
2058.08	-9.20823	-0.195966	0
2058.13	-9.19991	-0.195965	0
2058.21	-9.22028	-0.195963	0
2058.49	-9.24044	-0.195956	0
2059.19	-9.26012	-0.195956	0
2059.89	-9.27354	-0.195959	0
2060.49	-9.28257	-0.195963	0
2061.19	-9.29987	-0.195957	0
2061.71	-9.31965	-0.195956	0
2062.01	-9.31161	-0.195956	0
2062.03	-9.29053	-0.19596	0
2062.31	-9.28345	-0.19596	0
2062.87	-9.30117	-0.195958	0
2063.29	-9.32091	-0.195958	0
2063.57	-9.34141	-0.195955	0
2064.01	-9.36151	-0.195946	0
2064.93	-9.37505	-0.195955	0
2065.42	-9.39507	-0.195948	0
2066.17	-9.41275	-0.19595	0
2067.07	-9.43234	-0.195958	0
2067.41	-9.42698	-0.195956	0
2067.52	-9.40655	-0.195961	0
2068.61	-9.40147	-0.195965	0
2069.74	-9.40584	-0.195966	0
2070.77	-9.41237	-0.19596	0
2071.17	-9.43236	-0.195958	0
2072.04	-9.44181	-0.195954	0
2072.71	-9.46168	-0.195954	0
2073.33	-9.45905	-0.19596	0
2073.73	-9.44399	-0.195963	0
2073.91	-9.4647	-0.195958	0
2074.43	-9.46731	-0.195955	0
2075.52	-9.44973	-0.195964	0
2076.45	-9.45099	-0.195964	0
2076.95	-9.4631	-0.195959	0
2077.98	-9.46006	-0.195957	0
2078.8	-9.47976	-0.195961	0
2079.25	-9.49754	-0.19596	0
2079.63	-9.51745	-0.195963	0
2080.14	-9.53707	-0.195948	0
2080.65	-9.55265	-0.195948	0
2081.2	-9.57039	-0.195952	0
2081.33	-9.55597	-0.195954	0
2081.79	-9.57384	-0.19595	0
2081.82	-9.55313	-0.195956	0
2081.85	-9.53213	-0.195964	0
2082.11	-9.51814	-0.19596	0
2082.42	-9.49817	-0.195963	0
2082.75	-9.4781	-0.195974	0
2083.41	-9.49202	-0.195966	0
2083.82	-9.50743	-0.195961	0
2084.25	-9.51573	-0.195958	0
2085	-9.52722	-0.195967	0
2085.38	-9.54271	-0.195971	0
2085.99	-9.55204	-0.19596	0
2086.65	-9.57199	-0.19596	0
2086.88	-9.59217	-0.195947	0
2087.26	-9.61208	-0.195945	0
2087.6	-9.60996	-0.195965	0
2087.61	-9.56693	-0.195971	0
2087.61	-9.46802	-0.19597	0
2087.61	-9.43266	-0.195963	0
2087.62	-9.40536	-0.195963	0
2087.63	-9.38009	-0.195965	0
2087.64	-9.35806	-0.195967	0
2087.86	-9.34023	-0.195966	0
2088.48	-9.35204	-0.195966	0
2089.61	-9.33847	-0.195964	0
2090.13	-9.32427	-0.195965	0
2090.17	-9.30296	-0.195971	0
2092.04	-9.31014	-0.195967	0
2092.54	-9.31701	-0.195968	0
2093.14	-9.33272	-0.195967	0
2094.11	-9.34859	-0.19596	0
2094.93	-9.36604	-0.195967	0
2095.25	-9.34	-0.195972	0
2095.26	-9.29479	-0.195972	0
2095.26	-9.219	-0.19597	0
2095.26	-9.19197	-0.195961	0
2095.27	-9.16274	-0.195967	0
2095.28	-9.13756	-0.195968	0
2095.3	-9.1157	-0.195966	0
2095.45	-9.09745	-0.195967	0
2095.78	-9.11738	-0.195967	0
2096.4	-9.13538	-0.195961	0
2096.54	-9.15563	-0.195969	0
2097.27	-9.1434	-0.19597	0
2097.73	-9.12337	-0.195963	0
2097.97	-9.10348	-0.195968	0
2099.82	-9.09456	-0.195962	0
2101.12	-9.09137	-0.195963	0
2102.06	-9.10546	-0.19597	0
2102.46	-9.10355	-0.195968	0
2103.26	-9.0979	-0.195965	0
2104.06	-9.08114	-0.195961	0
2106.18	-9.07465	-0.195965	0
2106.51	-9.0754	-0.195963	0
2107.1	-9.08901	-0.195967	0
2107.48	-9.09069	-0.195968	0
2108.33	-9.10838	-0.19597	0
2109.44	-9.12795	-0.195966	0
2110.37	-9.14765	-0.195975	0
2111.24	-9.15642	-0.195967	0
2111.27	-9.13488	-0.195958	0
2111.94	-9.14819	-0.195968	0
2113.53	-9.15938	-0.195964	0
2114.74	-9.17478	-0.195966	0
2114.78	-9.1556	-0.195965	0
2114.8	-9.13202	-0.195967	0
2114.9	-9.14111	-0.195965	0
2115.02	-9.15027	-0.195964	0
2115.04	-9.12879	-0.195968	0
2115.43	-9.13122	-0.195965	0
2115.93	-9.14653	-0.195969	0
2116.49	-9.16625	-0.195962	0
2116.88	-9.18599	-0.195969	0
2117.98	-9.19473	-0.195968	0
2118.76	-9.21472	-0.195967	0
2118.84	-9.20266	-0.19597	0
2118.92	-9.20006	-0.195968	0
2119.68	-9.20521	-0.195965	0
2120.54	-9.21793	-0.195968	0
2120.97	-9.23767	-0.195968	0
2121.37	-9.25745	-0.195963	0
2121.83	-9.27723	-0.195966	0
2122.48	-9.2971	-0.195969	0
2123.71	-9.31699	-0.19596	0
2123.8	-9.30991	-0.195955	0
2123.82	-9.28876	-0.195963	0
2125.96	-9.29584	-0.195963	0
2127.76	-9.30099	-0.195965	0
2128.43	-9.30225	-0.195968	0
2129.1	-9.32249	-0.195965	0
2129.45	-9.34233	-0.19597	0
2130.06	-9.36012	-0.195966	0
2130.64	-9.37999	-0.195963	0
2131.7	-9.39593	-0.195967	0
2132.42	-9.41548	-0.195967	0
2132.71	-9.43522	-0.195963	0
2133.6	-9.4239	-0.195967	0
2134.54	-9.44368	-0.195965	0
2135.5	-9.45722	-0.195967	0
2136.04	-9.47115	-0.195966	0
2136.05	-9.44868	-0.195961	0
2136.08	-9.42682	-0.195963	0
2136.78	-9.43593	-0.195962	0
2138.35	-9.45567	-0.195967	0
2138.98	-9.47547	-0.19597	0
2139.79	-9.49523	-0.195969	0
2140.36	-9.51491	-0.195968	0
2141.56	-9.53457	-0.19596	0
2142.35	-9.54358	-0.195956	0
2142.49	-9.54083	-0.195968	0
2142.5	-9.52073	-0.195965	0
2142.52	-9.49906	-0.195962	0
2142.57	-9.47883	-0.195962	0
2142.78	-9.43801	-0.195964	0
2143.58	-9.42759	-0.195965	0
2144.68	-9.44343	-0.195968	0
2145.65	-9.45897	-0.195969	0
2146.56	-9.47873	-0.195968	0
2146.84	-9.49316	-0.195961	0
2148.63	-9.50872	-0.195963	0
2150.15	-9.52848	-0.195963	0
2150.82	-9.54398	-0.195961	0
2151.39	-9.5638	-0.195962	0
2152.32	-9.58362	-0.19596	0
2153.64	-9.58217	-0.195961	0
2153.84	-9.57491	-0.195974	0
2154.92	-9.56143	-0.195965	0
2155.29	-9.55296	-0.195969	0
2157.02	-9.55594	-0.195965	0
2157.75	-9.57596	-0.19597	0
2157.97	-9.59652	-0.195965	0
2158	-9.61752	-0.195963	0
2158.07	-9.63789	-0.195949	0
2158.31	-9.63224	-0.195953	0
2159.14	-9.64559	-0.195949	0
2159.86	-9.66537	-0.195954	0
2160.44	-9.6853	-0.19595	0
2161.63	-9.70315	-0.195953	0
2161.95	-9.71882	-0.19595	0
2162.21	-9.72119	-0.195953	0
2162.24	-9.69961	-0.19596	0
2162.26	-9.69763	-0.195955	0
2162.29	-9.67651	-0.195968	0
2163.12	-9.68812	-0.195965	0
2164.08	-9.70784	-0.195958	0
2164.88	-9.71932	-0.195958	0
2165.25	-9.69921	-0.195963	0
2166.37	-9.69003	-0.195961	0
2166.94	-9.7015	-0.195967	0
2167.76	-9.71281	-0.195957	0
2168.11	-9.73694	-0.195955	0
2168.14	-9.71987	-0.195962	0
2168.17	-9.69897	-0.19596	0
2169.76	-9.70634	-0.195958	0
2170.71	-9.726	-0.195963	0
2171.22	-9.74583	-0.19596	0
2171.59	-9.76613	-0.195955	0
2171.62	-9.78736	-0.19594	0
2171.74	-9.80784	-0.195929	0
2171.78	-9.8368	-0.195867	0
2171.8	-9.82247	-0.195916	0
2171.85	-9.80189	-0.195943	0
2173.17	-9.78394	-0.195958	0
2174.97	-9.79522	-0.195967	0
2175.15	-9.77502	-0.195961	0
2175.63	-9.75509	-0.195967	0
2176.01	-9.73541	-0.195962	0
2176.3	-9.71561	-0.195961	0
2176.53	-9.6954	-0.195968	0
2176.62	-9.67539	-0.195965	0
2176.72	-9.65544	-0.195968	0
2176.83	-9.63526	-0.195963	0
2176.96	-9.61508	-0.195961	0
2177.1	-9.59521	-0.195967	0
2177.24	-9.57476	-0.195965	0
2177.43	-9.55475	-0.19596	0
2177.63	-9.53469	-0.195972	0
2177.81	-9.51481	-0.195966	0
2177.97	-9.49484	-0.195963	0
2178.13	-9.47453	-0.195967	0
2178.49	-9.45454	-0.195963	0
2179.41	-9.43688	-0.19597	0
2182.01	-9.41922	-0.195967	0
2183.57	-9.41638	-0.195965	0
2186.29	-9.42161	-0.195961	0
2187.22	-9.4131	-0.195966	0
2187.25	-9.38118	-0.195969	0
2188.21	-9.3686	-0.195967	0
2190.25	-9.38849	-0.195968	0
2191.45	-9.40829	-0.19597	0
2191.63	-9.42818	-0.195965	0
2191.98	-9.44777	-0.19596	0
2192.28	-9.46754	-0.195963	0
2193.63	-9.46657	-0.195963	0
2196.28	-9.44695	-0.195961	0
2198.55	-9.44994	-0.195968	0
2200.08	-9.46953	-0.195965	0
2201.05	-9.47531	-0.195965	0
2201.57	-9.45561	-0.195968	0
2203.6	-9.4416	-0.195962	0
2204.91	-9.45515	-0.195966	0
2205.61	-9.47484	-0.195965	0
2206.4	-9.49244	-0.195968	0
2206.46	-9.47251	-0.195964	0
2207.25	-9.48169	-0.195965	0
2208.06	-9.468	-0.195966	0
2208.59	-9.44817	-0.195969	0
2208.72	-9.46481	-0.195961	0
2208.84	-9.45554	-0.195965	0
2208.95	-9.43559	-0.195972	0
2209.04	-9.41541	-0.195965	0
2209.16	-9.39527	-0.195967	0
2209.24	-9.37503	-0.195971	0
2209.33	-9.35466	-0.195967	0
2209.36	-9.33425	-0.195965	0
2209.45	-9.31434	-0.195975	0
2209.7	-9.29445	-0.19597	0
2210.2	-9.27497	-0.195969	0
2211.69	-9.25531	-0.195961	0
2217.15	-9.25634	-0.195968	0
2222.95	-9.27199	-0.195961	0
2224.67	-9.29166	-0.195967	0
2226.67	-9.31128	-0.195968	0
2228.93	-9.33118	-0.195965	0
2229.84	-9.35078	-0.195968	0
2231.06	-9.37031	-0.19596	0
2233.24	-9.38809	-0.195963	0
2233.32	-9.40842	-0.195961	0
2233.41	-9.38834	-0.195968	0
2233.49	-9.36842	-0.195965	0
2235.12	-9.35055	-0.195964	0
2237.42	-9.37028	-0.195968	0
2239.1	-9.39013	-0.195964	0
2240.46	-9.40966	-0.19597	0
2241.35	-9.42915	-0.195974	0
2242.03	-9.44926	-0.195963	0
2242.61	-9.46901	-0.195963	0
2243.35	-9.48858	-0.195965	0
2244.21	-9.50846	-0.195967	0
2244.68	-9.50702	-0.195965	0
2244.72	-9.48643	-0.195967	0
2244.93	-9.47045	-0.19596	0
2248.13	-9.47537	-0.19597	0
2250.23	-9.4953	-0.19596	0
2250.31	-9.50559	-0.195964	0
2250.49	-9.48564	-0.195965	0
2250.73	-9.4656	-0.195963	0
2253.29	-9.44796	-0.195968	0
2255.76	-9.46772	-0.19597	0
2256.73	-9.46976	-0.195962	0
2257.05	-9.44941	-0.195965	0
2257.99	-9.42915	-0.195965	0
2259.83	-9.41277	-0.195965	0
2262.45	-9.39935	-0.195968	0
2264.07	-9.41495	-0.195971	0
2265.87	-9.43452	-0.195967	0
2266.91	-9.4541	-0.195971	0
2267.77	-9.46352	-0.195964	0
2268.67	-9.48373	-0.19596	0
2268.82	-9.46997	-0.195967	0
2271.03	-9.48091	-0.195967	0
2272.38	-9.5005	-0.195958	0
2273.74	-9.52003	-0.195965	0
2274.4	-9.53973	-0.195967	0
2275.82	-9.55943	-0.195965	0
2276.31	-9.56334	-0.195967	0
2276.77	-9.54358	-0.195975	0
2277.93	-9.52592	-0.195959	0
2279.94	-9.53515	-0.195963	0
2280.9	-9.55489	-0.195967	0
2282.1	-9.57463	-0.19596	0
2283.13	-9.59425	-0.195964	0
2283.99	-9.61458	-0.195956	0
2284.4	-9.60307	-0.195968	0
2285.16	-9.62277	-0.195969	0
2287.04	-9.64263	-0.19597	0
2288.34	-9.6625	-0.19596	0
2288.99	-9.67575	-0.195963	0
2291.5	-9.66855	-0.195965	0
2293.91	-9.68826	-0.195969	0
2295.87	-9.70805	-0.195962	0
2297.76	-9.7276	-0.195965	0
2299.35	-9.74536	-0.195965	0
2300.44	-9.76334	-0.195961	0
2301.3	-9.74337	-0.195967	0
2304.31	-9.74646	-0.195967	0
2305.98	-9.76641	-0.195961	0
2309.24	-9.76305	-0.195963	0
2311	-9.7676	-0.195963	0
2312.5	-9.78761	-0.195965	0
2312.62	-9.80792	-0.19596	0
2312.86	-9.82773	-0.19596	0
2313.18	-9.8478	-0.195953	0
2313.78	-9.8676	-0.195937	0
2318.26	-9.88358	-0.195957	0
2321.13	-9.88642	-0.195957	0
2322.9	-9.9044	-0.195966	0
2327.75	-9.90784	-0.195969	0
2331.8	-9.89639	-0.195965	0
2332.81	-9.88468	-0.195967	0
2334.26	-9.86512	-0.195965	0
2336.24	-9.84547	-0.195967	0
2338.08	-9.82584	-0.195968	0
2341.78	-9.81048	-0.195972	0
2342.34	-9.7907	-0.195966	0
2342.62	-9.7704	-0.19596	0
2343.53	-9.74929	-0.195966	0
2347.41	-9.73386	-0.195965	0
2352.9	-9.73465	-0.195965	0
2353.32	-9.75439	-0.195966	0
2354.91	-9.77	-0.195969	0
2357.3	-9.75034	-0.195979	0
2359.41	-9.73285	-0.195964	0
2362.01	-9.71752	-0.195968	0
2364.72	-9.69772	-0.195966	0
2366.79	-9.67787	-0.195967	0
2369.47	-9.65826	-0.19597	0
2375.15	-9.64041	-0.195965	0
2382.08	-9.62634	-0.195967	0
2383.19	-9.61229	-0.195963	0
2390.8	-9.59862	-0.195963	0
2395.65	-9.59129	-0.195965	0
2405.5	-9.60038	-0.195965	0
2415.58	-9.60349	-0.19597	0
2429.3	-9.59639	-0.195963	0
2430.76	-9.57485	-0.195965	0
2430.79	-9.55233	-0.195966	0
2436.59	-9.53259	-0.195962	0
2443.51	-9.51493	-0.195963	0
2447.86	-9.49515	-0.195962	0
2449.88	-9.4984	-0.195965	0
2450	-9.51869	-0.195963	0
2450.14	-9.53887	-0.195967	0
2450.86	-9.54198	-0.195968	0
2451.34	-9.52205	-0.195957	0
2451.78	-9.5025	-0.19596	0
2452.52	-9.48255	-0.19596	0
2453.61	-9.46281	-0.195968	0
2454.81	-9.4429	-0.19597	0
2456.49	-9.42301	-0.195964	0
2457.72	-9.40328	-0.195963	0
2460.18	-9.38349	-0.195965	0
2462.48	-9.36333	-0.195961	0
2466.06	-9.34359	-0.195968	0
2468.58	-9.32169	-0.195965	0
2470.15	-9.30166	-0.19596	0
2476.03	-9.28221	-0.195962	0
2477.49	-9.26254	-0.195963	0
2481.93	-9.243	-0.195967	0
2488.79	-9.22356	-0.195961	0
2496.98	-9.20411	-0.195969	0
2505.26	-9.21224	-0.195969	0
2505.46	-9.21132	-0.195967	0
2505.66	-9.19114	-0.195969	0
2507.34	-9.17123	-0.195966	0
2508.82	-9.17625	-0.195968	0
2510.18	-9.15665	-0.195967	0
2511.15	-9.137	-0.195965	0
2512.61	-9.13404	-0.19597	0
2514.15	-9.13513	-0.195965	0
2516.39	-9.11539	-0.195963	0
2519.06	-9.09556	-0.195965	0
2521.94	-9.07593	-0.195965	0
2523.84	-9.05615	-0.195965	0
2526.97	-9.03637	-0.19596	0
2527.74	-9.05611	-0.195967	0
2528.74	-9.06974	-0.195967	0
2528.89	-9.08154	-0.195965	0
2529.65	-9.0828	-0.195968	0
2532.06	-9.06323	-0.195965	0
2532.45	-9.04359	-0.195962	0
2533.23	-9.02379	-0.195967	0
2534.9	-9.00411	-0.19597	0
2537.28	-8.98452	-0.19597	0
2541.79	-8.99183	-0.195967	0
2546.48	-9.00537	-0.195967	0
2546.8	-9.0252	-0.195966	0
2554.32	-9.0429	-0.195968	0
2554.79	-9.06258	-0.195964	0
2555.08	-9.08242	-0.195967	0
2556.22	-9.07267	-0.19596	0
2557.19	-9.05296	-0.195966	0
2558.03	-9.03349	-0.195961	0
2562.9	-9.0181	-0.195967	0
2567.22	-9.01524	-0.195962	0
2572.45	-9.03053	-0.195962	0
2574.88	-9.05008	-0.195967	0
2578.19	-9.06952	-0.19596	0
2582.4	-9.08488	-0.195962	0
2587.34	-9.10455	-0.195966	0
2591.73	-9.11982	-0.19596	0
2596.37	-9.13939	-0.195965	0
2596.98	-9.15543	-0.195965	0
2600.15	-9.16064	-0.195968	0
2604.82	-9.17408	-0.195968	0
2607.71	-9.1937	-0.195968	0
2610.32	-9.21369	-0.195965	0
2615.63	-9.22915	-0.195963	0
2618.79	-9.24889	-0.195961	0
2620.39	-9.26865	-0.195968	0
2622.81	-9.28618	-0.195965	0
2627.06	-9.29956	-0.195965	0
2630.35	-9.31709	-0.195968	0
2634.35	-9.32413	-0.195964	0
2637.56	-9.34362	-0.195969	0
2640.22	-9.36317	-0.195966	0
2643.63	-9.38064	-0.195961	0
2646.48	-9.40004	-0.195965	0
2649.01	-9.41964	-0.195966	0
2649.8	-9.43916	-0.195961	0
2650.44	-9.45893	-0.195968	0
2650.92	-9.47894	-0.195963	0
2651.1	-9.49882	-0.195966	0
2651.33	-9.51884	-0.195967	0
2652.09	-9.50317	-0.195965	0
2652.58	-9.48333	-0.19596	0
2653.53	-9.46581	-0.195965	0
2655.08	-9.44616	-0.195963	0
2656.62	-9.42616	-0.195963	0
2658.52	-9.41073	-0.195961	0
2662.85	-9.42419	-0.195963	0
2668.32	-9.44194	-0.195965	0
2672.48	-9.45939	-0.195965	0
2675.83	-9.47904	-0.195959	0
2676.89	-9.49876	-0.195965	0
2681.81	-9.5142	-0.195965	0
2686.56	-9.52552	-0.195965	0
2689.62	-9.53686	-0.195963	0
2695.74	-9.55227	-0.195971	0
2700.78	-9.57212	-0.195969	0
2702.37	-9.59156	-0.195967	0
2708.3	-9.60697	-0.195966	0
2713.8	-9.59345	-0.195968	0
2716.49	-9.57806	-0.195963	0
2720.98	-9.55851	-0.195967	0
2726.79	-9.5638	-0.195961	0
2730.51	-9.54412	-0.195965	0
2733.28	-9.52455	-0.19596	0
2737.77	-9.5215	-0.195963	0
2738.67	-9.50584	-0.195964	0
2739.46	-9.48643	-0.19597	0
2741.05	-9.46691	-0.195965	0
2748.31	-9.47436	-0.195971	0
2751.39	-9.47972	-0.195961	0
2755.14	-9.49322	-0.195966	0
2756.71	-9.51294	-0.195967	0
2758	-9.53276	-0.195967	0
2759.22	-9.5524	-0.195965	0
2760.55	-9.57203	-0.19596	0
2762.13	-9.56897	-0.195962	0
2763.05	-9.5491	-0.195963	0
2763.57	-9.52942	-0.195965	0
2764.43	-9.5097	-0.195963	0
2765.43	-9.49001	-0.195968	0
2767.38	-9.47029	-0.195963	0
2769.25	-9.45069	-0.195966	0
2771.11	-9.4307	-0.195969	0
2772.76	-9.41329	-0.195961	0
2774.81	-9.39318	-0.195965	0
2775.66	-9.37318	-0.195963	0
2776.44	-9.35348	-0.195965	0
2777.04	-9.33366	-0.195967	0
2777.97	-9.31378	-0.195962	0
2778.56	-9.32203	-0.195967	0
2779.71	-9.30229	-0.195966	0
2782.55	-9.28261	-0.195964	0
2792.36	-9.29004	-0.195962	0
2794.06	-9.30976	-0.195967	0
2794.94	-9.32325	-0.195969	0
2798.79	-9.32427	-0.19596	0
2800.71	-9.30462	-0.195964	0
2802.76	-9.28494	-0.195963	0
2804.86	-9.26529	-0.195961	0
2805.89	-9.24737	-0.195963	0
2807.3	-9.22753	-0.195969	0
2810.27	-9.2349	-0.195967	0
2810.88	-9.21506	-0.195956	0
2811.4	-9.19506	-0.195965	0
2812.85	-9.18366	-0.195963	0
2815.46	-9.18681	-0.195961	0
2818.49	-9.16732	-0.195965	0
2820.06	-9.14983	-0.195962	0
2822.27	-9.13003	-0.195964	0
2824.36	-9.11675	-0.195968	0
2824.72	-9.13679	-0.195965	0
2825.54	-9.15665	-0.195967	0
2829.46	-9.14722	-0.195972	0
2830.35	-9.12717	-0.195963	0
2831.39	-9.10758	-0.195967	0
2832.02	-9.08565	-0.195971	0
2834.44	-9.06799	-0.195964	0
2837.45	-9.07312	-0.195961	0
2842.15	-9.06778	-0.195963	0
2843	-9.07459	-0.195962	0
2845.06	-9.09206	-0.195961	0
2846.65	-9.10964	-0.195962	0
2848.19	-9.12969	-0.195966	0
2849.25	-9.12161	-0.195962	0
2852.03	-9.12068	-0.195971	0
2853.85	-9.10711	-0.195963	0
2854.29	-9.08735	-0.195965	0
2855.04	-9.07988	-0.195965	0
2857.14	-9.06633	-0.195962	0
2859.02	-9.04666	-0.195968	0
2860.7	-9.0269	-0.195971	0
2862.46	-9.00722	-0.195967	0
2863.89	-8.98771	-0.195964	0
2865.54	-8.96774	-0.19596	0
2866.76	-8.9501	-0.195963	0
2867.13	-8.93452	-0.195965	0
2868.1	-8.91495	-0.195965	0
2874.06	-8.91408	-0.195967	0
2880.11	-8.93395	-0.19597	0
2884.39	-8.94972	-0.195964	0
2884.51	-8.92975	-0.195967	0
2884.72	-8.90976	-0.195961	0
2885.13	-8.88995	-0.195969	0
2891.36	-8.88895	-0.195972	0
2897.72	-8.88374	-0.195967	0
2901.66	-8.87219	-0.195968	0
2906.06	-8.89164	-0.195968	0
2907.78	-8.9114	-0.19596	0
2909.34	-8.93118	-0.195963	0
2911.62	-8.9509	-0.195962	0
2912.73	-8.96459	-0.195961	0
2914.43	-8.97801	-0.195961	0
2915.04	-8.99153	-0.195966	0
2915.55	-9.009	-0.195965	0
2915.75	-8.98884	-0.195966	0
2916.2	-8.97101	-0.195968	0
2917.71	-8.99061	-0.195964	0
2918.7	-9.01043	-0.195968	0
2920.01	-9.03007	-0.195969	0
2921.11	-9.0497	-0.195968	0
2924.35	-9.06115	-0.195968	0
2924.7	-9.04325	-0.195961	0
2924.8	-9.02345	-0.195967	0
2924.97	-9.00377	-0.195967	0
2925.36	-8.98376	-0.195958	0
2927.21	-8.96406	-0.195965	0
2930.25	-8.94456	-0.195963	0
2933.78	-8.93135	-0.195967	0
2934.92	-8.91138	-0.195965	0
2936.82	-8.89143	-0.195965	0
2939.04	-8.87196	-0.195963	0
2940.42	-8.85638	-0.195968	0
2942.58	-8.83678	-0.195966	0
2944.25	-8.81946	-0.19597	0
2947.24	-8.80424	-0.195968	0
2952.09	-8.8051	-0.195964	0
2952.7	-8.82492	-0.195968	0
2953.12	-8.84476	-0.195961	0
2953.61	-8.86442	-0.195968	0
2954.08	-8.88412	-0.195966	0
2955.16	-8.90363	-0.195964	0
2957.88	-8.88996	-0.195966	0
2958.21	-8.87017	-0.195961	0
2958.44	-8.85062	-0.195967	0
2960.93	-8.83292	-0.195969	0
2962.69	-8.84014	-0.19597	0
2963.65	-8.8599	-0.195966	0
2965.07	-8.87731	-0.195963	0
2966.48	-8.89476	-0.195965	0
2967.19	-8.91293	-0.195967	0
2967.43	-8.90745	-0.195961	0
2967.5	-8.88714	-0.195966	0
2968.43	-8.89451	-0.195966	0
2968.97	-8.91444	-0.195967	0
2969.99	-8.92568	-0.195964	0
2970.76	-8.94529	-0.195971	0
2971.01	-8.96513	-0.195963	0
2971.42	-8.98485	-0.19597	0
2973.26	-8.99848	-0.195965	0
2973.51	-9.01829	-0.19597	0
2973.82	-9.03798	-0.19597	0
2975.9	-9.04934	-0.195967	0
2979.05	-9.04607	-0.195965	0
2980.09	-9.06564	-0.195972	0
2981.21	-9.06904	-0.195965	0
2981.45	-9.08931	-0.19597	0
2981.78	-9.10928	-0.195965	0
2981.86	-9.09122	-0.195967	0
2981.99	-9.07114	-0.195963	0
2982.06	-9.05096	-0.195964	0
2982.22	-9.03063	-0.195961	0
2982.96	-9.01085	-0.195968	0
2984.43	-8.99132	-0.195963	0
2985.19	-8.97169	-0.195961	0
2985.64	-8.95195	-0.195967	0
2987.3	-8.9384	-0.195967	0
2987.92	-8.91862	-0.195961	0
2989.1	-8.89898	-0.195965	0
2989.84	-8.8792	-0.195965	0
2990.24	-8.8594	-0.195964	0
2990.65	-8.83935	-0.195962	0
2991.06	-8.81942	-0.195965	0
2991.52	-8.7997	-0.195974	0
2991.88	-8.77973	-0.195968	0
2992.27	-8.75992	-0.195961	0
2992.96	-8.74205	-0.195967	0
2993.58	-8.72242	-0.195968	0
2995.18	-8.72336	-0.19596	0
2995.88	-8.72418	-0.195968	0
2997	-8.70432	-0.195961	0
2999.61	-8.69709	-0.195963	0
3002.76	-8.70226	-0.195965	0
3005.69	-8.6969	-0.195965	0
3008.25	-8.70829	-0.195959	0
3010.1	-8.72	-0.195968	0
3011.29	-8.73141	-0.195965	0
3012.75	-8.71603	-0.195972	0
3014.27	-8.73368	-0.195967	0
3014.77	-8.72416	-0.19597	0
3015.78	-8.71467	-0.195961	0
3017.22	-8.7032	-0.195963	0
3020.27	-8.71874	-0.195967	0
3024.15	-8.73853	-0.195962	0
3025.68	-8.7582	-0.195961	0
3027.03	-8.77792	-0.195968	0
3028.11	-8.79781	-0.195962	0
3028.64	-8.7801	-0.19597	0
3028.92	-8.76026	-0.195963	0
3029	-8.73989	-0.195969	0
3029.24	-8.72011	-0.195972	0
3030.55	-8.72943	-0.195968	0
3031.15	-8.74919	-0.195969	0
3032.38	-8.75648	-0.195963	0
3035.23	-8.74084	-0.195967	0
3037.52	-8.76079	-0.195964	0
3038.65	-8.78065	-0.195968	0
3039.46	-8.80068	-0.195966	0
3042.42	-8.79336	-0.19597	0
3044.22	-8.80255	-0.195969	0
3045.21	-8.79922	-0.195964	0
3045.99	-8.78762	-0.195963	0
3046.96	-8.80766	-0.195972	0
3047.48	-8.78985	-0.195966	0
3048.18	-8.77242	-0.195967	0
3049.21	-8.7527	-0.195967	0
3051.93	-8.75377	-0.195968	0
3052.7	-8.76961	-0.195968	0
3055.15	-8.76421	-0.195967	0
3057.27	-8.74424	-0.195964	0
3057.57	-8.72633	-0.195958	0
3057.94	-8.74609	-0.195966	0
3058.82	-8.7657	-0.195966	0
3060.19	-8.75633	-0.195962	0
3062.43	-8.76767	-0.195961	0
3063.09	-8.74968	-0.195966	0
3063.25	-8.72939	-0.195963	0
3064.07	-8.72611	-0.195961	0
3066.94	-8.74361	-0.195965	0
3070.16	-8.74861	-0.195961	0
3070.31	-8.73724	-0.195961	0
3071.33	-8.75262	-0.195967	0
3072.88	-8.75574	-0.195967	0
3074.95	-8.77538	-0.195962	0
3075.52	-8.76358	-0.195968	0
3075.81	-8.74356	-0.195963	0
3078.58	-8.74665	-0.195967	0
3079.29	-8.74142	-0.195974	0
3079.51	-8.72164	-0.195966	0
3080.04	-8.72313	-0.195962	0
3081.1	-8.70957	-0.195965	0
3083.99	-8.69394	-0.195968	0
3088.45	-8.71356	-0.19596	0
3088.86	-8.69787	-0.195969	0
3089.24	-8.67817	-0.195965	0
3090.2	-8.69821	-0.195963	0
3090.91	-8.71784	-0.195968	0
3092.1	-8.73193	-0.195963	0
3092.71	-8.72901	-0.195968	0
3095.48	-8.72769	-0.195968	0
3098.19	-8.74749	-0.195966	0
3099.51	-8.76496	-0.195967	0
3100.75	-8.78284	-0.195964	0
3100.91	-8.7759	-0.195965	0
3101.51	-8.75608	-0.195963	0
3102.46	-8.73634	-0.195968	0
3103.77	-8.73263	-0.195967	0
3104.76	-8.75222	-0.195971	0
3106.51	-8.76364	-0.195963	0
3106.63	-8.76929	-0.195967	0
3108.03	-8.76627	-0.195967	0
3110.04	-8.76093	-0.195968	0
3111.24	-8.7805	-0.19597	0
3112.89	-8.79829	-0.19597	0
3113.74	-8.81784	-0.195963	0
3114.18	-8.83754	-0.195967	0
3115.84	-8.85713	-0.195961	0
3117.33	-8.86427	-0.195972	0
3118.73	-8.86555	-0.195968	0
3118.91	-8.84533	-0.19596	0
3120	-8.82966	-0.19596	0
3122.36	-8.84949	-0.195969	0
3122.91	-8.84042	-0.195969	0
3125.19	-8.84153	-0.195963	0
3125.86	-8.85713	-0.195967	0
3127.85	-8.85829	-0.195969	0
3129.13	-8.85487	-0.195965	0
3129.81	-8.8744	-0.195968	0
3130.28	-8.89403	-0.195968	0
3131.23	-8.90755	-0.195965	0
3132.4	-8.90058	-0.195966	0
3132.67	-8.88061	-0.195964	0
3133.87	-8.88996	-0.195966	0
3135.56	-8.90976	-0.195964	0
3137.4	-8.90862	-0.19596	0
3137.83	-8.88861	-0.19596	0
3139.24	-8.90003	-0.195965	0
3141.73	-8.91156	-0.195956	0
3142.73	-8.89995	-0.195963	0
3144.9	-8.89075	-0.19597	0
3147.4	-8.90226	-0.195963	0
3148.52	-8.91602	-0.195966	0
3148.7	-8.89628	-0.195967	0
3148.96	-8.87658	-0.195964	0
3149.97	-8.85699	-0.19597	0
3152.96	-8.84972	-0.195972	0
3155.69	-8.86308	-0.195963	0
3156.81	-8.84756	-0.195955	0
3159.08	-8.83848	-0.195967	0
3160.71	-8.85635	-0.195963	0
3161.96	-8.85552	-0.195963	0
3164.11	-8.84821	-0.195966	0
3166.21	-8.85753	-0.195963	0
3168.14	-8.87087	-0.195963	0
3169.19	-8.89075	-0.195966	0
3173.01	-8.8939	-0.195964	0
3173.69	-8.87416	-0.195964	0
3175.28	-8.88149	-0.195962	0
3177.08	-8.8826	-0.195968	0
3177.45	-8.8628	-0.195965	0
3178.29	-8.84724	-0.195971	0
3178.7	-8.86511	-0.195966	0
3179.09	-8.84523	-0.195969	0
3179.51	-8.82525	-0.195968	0
3180.5	-8.83712	-0.195964	0
3182.17	-8.81954	-0.195965	0
3184.37	-8.8039	-0.195962	0
3188.93	-8.79672	-0.19596	0
3191.86	-8.80614	-0.195967	0
3192.69	-8.80925	-0.195963	0
3193.04	-8.78949	-0.195969	0
3194.67	-8.78418	-0.195958	0
3198	-8.80184	-0.195968	0
3199.8	-8.81942	-0.195963	0
3200.93	-8.79966	-0.195968	0
3201.84	-8.7821	-0.195961	0
3203.55	-8.78355	-0.195965	0
3207.35	-8.80329	-0.195965	0
3208.35	-8.81879	-0.195968	0
3209.01	-8.82446	-0.195967	0
3209.47	-8.80457	-0.195967	0
3210.24	-8.80148	-0.195967	0
3215.67	-8.81087	-0.195965	0
3217.98	-8.80969	-0.195965	0
3218.42	-8.78972	-0.195965	0
3218.84	-8.76994	-0.195968	0
3222.18	-8.78135	-0.195967	0
3222.79	-8.78706	-0.195961	0
3224.65	-8.7716	-0.195962	0
3228.48	-8.76228	-0.195964	0
3229	-8.77769	-0.195967	0
3231.12	-8.79548	-0.195965	0
3232.55	-8.80673	-0.195961	0
3233.9	-8.82439	-0.195961	0
3234.75	-8.83576	-0.19596	0
3235.33	-8.81608	-0.195965	0
3237.26	-8.82746	-0.195968	0
3239.46	-8.81627	-0.195964	0
3241.69	-8.80486	-0.195965	0
3241.8	-8.78326	-0.195965	0
3242.06	-8.76358	-0.195958	0
3243.71	-8.74993	-0.195961	0
3245.17	-8.73233	-0.195968	0
3245.8	-8.71257	-0.195961	0
3249.95	-8.69923	-0.19596	0
3250.47	-8.68134	-0.195967	0
3251.14	-8.66164	-0.19596	0
3254.89	-8.68105	-0.195966	0
3257.94	-8.69871	-0.195967	0
3259.85	-8.71204	-0.195968	0
3261.15	-8.73174	-0.195964	0
3263.11	-8.75142	-0.195967	0
3265.04	-8.76765	-0.195965	0
3265.23	-8.74802	-0.195967	0
3265.55	-8.72826	-0.195972	0
3267.84	-8.73153	-0.195966	0
3271.37	-8.75115	-0.195969	0
3273.91	-8.77091	-0.195968	0
3276.51	-8.79039	-0.195964	0
3277.75	-8.80976	-0.195966	0
3278.73	-8.82939	-0.195961	0
3280.25	-8.84506	-0.195967	0
3281	-8.82525	-0.195962	0
3281.88	-8.84495	-0.195963	0
3282.97	-8.83324	-0.195967	0
3283.22	-8.81354	-0.195968	0
3285.04	-8.79382	-0.195967	0
3287.46	-8.78244	-0.195966	0
3288.09	-8.76266	-0.195959	0
3291.7	-8.75749	-0.195967	0
3294.38	-8.77504	-0.195966	0
3298.03	-8.76589	-0.195967	0
3303.27	-8.78542	-0.195967	0
3303.77	-8.80531	-0.195966	0
3304.44	-8.82502	-0.195963	0
3307.37	-8.84279	-0.195965	0
3307.64	-8.83781	-0.195967	0
3308.07	-8.8182	-0.195966	0
3309.89	-8.83374	-0.195966	0
3311.71	-8.85327	-0.195963	0
3312.67	-8.8627	-0.195973	0
3314.01	-8.84701	-0.195963	0
3315.55	-8.84187	-0.195966	0
3318	-8.85121	-0.195962	0
3318.5	-8.83338	-0.195964	0
3319.55	-8.81356	-0.195964	0
3321.63	-8.80587	-0.19596	0
3323.22	-8.8212	-0.195963	0
3323.35	-8.80121	-0.195965	0
3323.97	-8.7816	-0.195961	0
3324.79	-8.78454	-0.195965	0
3325.37	-8.76499	-0.195963	0
3325.69	-8.77773	-0.195967	0
3329.4	-8.77051	-0.195961	0
3333.66	-8.79008	-0.19597	0
3335.29	-8.80984	-0.195962	0
3337.22	-8.82954	-0.195965	0
3339.34	-8.83483	-0.19596	0
3341.69	-8.85235	-0.195961	0
3343.01	-8.84873	-0.195963	0
3343.08	-8.82819	-0.195959	0
3343.2	-8.80791	-0.195965	0
3343.4	-8.78771	-0.195963	0
3344.29	-8.77202	-0.195963	0
3346.38	-8.75635	-0.195967	0
3351.02	-8.76975	-0.195957	0
3353.77	-8.7855	-0.195969	0
3355.45	-8.78443	-0.195967	0
3359.43	-8.77152	-0.195965	0
3359.88	-8.75379	-0.195973	0
3360.05	-8.73571	-0.19597	0
3360.16	-8.71582	-0.195962	0
3360.34	-8.69585	-0.195964	0
3360.66	-8.67593	-0.195964	0
3365.2	-8.66238	-0.195965	0
3370.15	-8.68214	-0.195962	0
3371.47	-8.70178	-0.195968	0
3372.04	-8.72151	-0.195964	0
3374.67	-8.72658	-0.19596	0
3375.28	-8.74644	-0.195972	0
3376.56	-8.75377	-0.195962	0
3378.74	-8.73424	-0.195968	0
3381.44	-8.72469	-0.195965	0
3382.15	-8.70512	-0.195967	0
3384.96	-8.69997	-0.195961	0
3386.13	-8.70751	-0.195967	0
3387.17	-8.68768	-0.195967	0
3391.76	-8.69898	-0.195969	0
3394.3	-8.68353	-0.195964	0
3399.54	-8.67849	-0.195963	0
3402.87	-8.69604	-0.195964	0
3405.24	-8.71587	-0.195962	0
3408.48	-8.73565	-0.195971	0
3410.83	-8.75524	-0.195959	0
3413.32	-8.77465	-0.195968	0
3414.64	-8.79445	-0.195965	0
3418.3	-8.81202	-0.195969	0
3422.86	-8.83166	-0.195967	0
3425.9	-8.84735	-0.195966	0
3429.52	-8.86713	-0.195961	0
3429.78	-8.88748	-0.195966	0
3431.41	-8.89491	-0.19596	0
3436.83	-8.89592	-0.195967	0
3437.72	-8.88258	-0.195969	0
3437.95	-8.86284	-0.195967	0
3438.18	-8.84304	-0.195965	0
3438.36	-8.82295	-0.195965	0
3438.63	-8.80325	-0.195967	0
3439.6	-8.81054	-0.195969	0
3440.83	-8.83011	-0.195966	0
3442.23	-8.84976	-0.195971	0
3443.69	-8.85938	-0.195963	0
3443.92	-8.83928	-0.19597	0
3444.3	-8.81933	-0.195965	0
3445.27	-8.79976	-0.195967	0
3446.22	-8.7801	-0.19596	0
3448.73	-8.76265	-0.195963	0
3450.78	-8.743	-0.19597	0
3456.4	-8.73796	-0.195966	0
3459.12	-8.7518	-0.195965	0
3459.2	-8.73187	-0.195963	0
3459.29	-8.71179	-0.195964	0
3459.39	-8.6914	-0.195965	0
3459.53	-8.67122	-0.195969	0
3459.72	-8.65127	-0.195965	0
3460.05	-8.63153	-0.195962	0
3461.28	-8.61158	-0.195967	0
3462.81	-8.59192	-0.195968	0
3467.1	-8.57437	-0.195965	0
3471.18	-8.58357	-0.195968	0
3473.52	-8.60316	-0.195966	0
3476.2	-8.62275	-0.195962	0
3479.3	-8.64247	-0.195966	0
3481.72	-8.66198	-0.195968	0
3483.65	-8.68172	-0.195963	0
3485.61	-8.70138	-0.19597	0
3487.17	-8.72126	-0.195967	0
3487.74	-8.74138	-0.195968	0
3487.87	-8.76108	-0.195966	0
3488.16	-8.7808	-0.195965	0
3489.46	-8.80069	-0.195963	0
3490.76	-8.81557	-0.195965	0