File: EXPERIMENTAL/Data/Battery-cycling/JP-measurements/C-cell/2024-04-22_JP-measurements_sample-A9-02_C-cell_Cu-Li-Cellgard2400-separator_25muL-LiFSI-in-DME_outside-glovebox_sigma-0.02_added-OCV-0.1s_04_CP_C11.txt
time/s	Ewe/V	I/mA	error
182.44	-0.036954	-1.94538	0
182.441	-0.0943847	-1.9596	0
182.442	-0.108796	-1.95961	0
182.443	-0.121394	-1.9596	0
182.444	-0.132828	-1.95953	0
182.445	-0.143421	-1.95962	0
182.446	-0.153366	-1.95962	0
182.447	-0.16291	-1.95959	0
182.448	-0.171671	-1.95956	0
182.449	-0.18007	-1.95963	0
182.45	-0.187972	-1.95956	0
182.451	-0.195302	-1.95964	0
182.452	-0.202612	-1.95958	0
182.453	-0.209274	-1.95955	0
182.454	-0.215821	-1.95956	0
182.455	-0.221929	-1.95963	0
182.456	-0.227656	-1.9596	0
182.457	-0.233229	-1.9596	0
182.458	-0.239452	-1.95956	0
182.46	-0.246438	-1.95959	0
182.462	-0.254856	-1.9596	0
182.464	-0.263273	-1.95959	0
182.466	-0.271138	-1.95958	0
182.468	-0.278124	-1.95962	0
182.47	-0.284824	-1.95962	0
182.472	-0.290836	-1.95955	0
182.474	-0.296773	-1.95959	0
182.476	-0.303071	-1.95967	0
182.479	-0.310229	-1.95961	0
182.482	-0.316376	-1.95959	0
182.485	-0.322369	-1.95953	0
182.488	-0.328745	-1.95963	0
182.492	-0.334509	-1.95962	0
182.496	-0.340522	-1.95958	0
182.5	-0.345981	-1.95958	0
182.505	-0.351268	-1.95961	0
182.511	-0.356708	-1.95962	0
182.518	-0.362186	-1.9596	0
182.526	-0.367569	-1.9596	0
182.539	-0.372818	-1.9596	0
182.572	-0.378087	-1.95964	0
183.054	-0.377113	-1.95963	0
183.564	-0.3824	-1.95961	0
184.178	-0.387554	-1.95959	0
184.821	-0.392727	-1.95959	0
185.459	-0.397842	-1.95961	0
186.073	-0.402996	-1.95962	0
186.679	-0.408169	-1.95962	0
187.264	-0.413342	-1.9596	0
187.848	-0.418457	-1.95958	0
188.4	-0.423554	-1.9596	0
189.004	-0.428822	-1.95956	0
189.579	-0.434014	-1.95961	0
190.136	-0.43911	-1.95963	0
190.708	-0.444283	-1.95964	0
191.301	-0.449532	-1.95964	0
191.878	-0.454648	-1.95973	0
192.463	-0.459878	-1.95964	0
193.042	-0.465012	-1.95967	0
193.63	-0.470204	-1.9596	0
194.228	-0.47532	-1.95962	0
194.859	-0.480454	-1.9596	0
195.493	-0.485646	-1.95963	0
196.124	-0.490762	-1.95957	0
196.752	-0.495839	-1.95962	0
197.396	-0.500955	-1.95961	0
198.039	-0.506032	-1.95969	0
198.702	-0.511224	-1.95963	0
199.38	-0.516435	-1.95958	0
200.085	-0.521627	-1.95962	0
200.799	-0.52678	-1.9596	0
201.507	-0.531934	-1.95964	0
202.223	-0.53705	-1.95963	0
202.981	-0.542184	-1.95961	0
203.742	-0.547262	-1.95967	0
204.515	-0.552358	-1.95959	0
205.322	-0.557531	-1.95964	0
206.149	-0.562646	-1.95961	0
206.995	-0.567724	-1.95965	0
207.875	-0.572782	-1.95962	0
208.796	-0.577897	-1.95957	0
209.804	-0.583299	-1.95967	0
210.782	-0.588415	-1.95963	0
211.787	-0.593549	-1.9596	0
212.89	-0.59876	-1.95967	0
214.021	-0.603933	-1.95958	0
215.156	-0.609011	-1.95967	0
216.385	-0.614088	-1.95965	0
217.654	-0.619223	-1.9596	0
219.075	-0.624414	-1.95963	0
220.692	-0.62953	-1.95959	0
222.492	-0.634646	-1.95961	0
224.699	-0.639761	-1.95961	0
228.364	-0.645067	-1.95962	0
233.557	-0.616951	-1.95963	0
233.559	-0.610347	-1.95967	0
233.566	-0.60462	-1.95968	0
233.578	-0.62325	-1.95963	0
233.579	-0.613611	-1.95962	0
233.582	-0.627488	-1.9597	0
233.594	-0.632985	-1.9596	0
233.596	-0.610519	-1.95962	0
233.601	-0.605174	-1.95951	0
233.604	-0.624338	-1.95965	0
233.611	-0.62974	-1.9596	0
233.615	-0.62701	-1.95963	0
233.617	-0.605937	-1.95965	0
233.626	-0.613076	-1.95961	0
233.63	-0.605556	-1.95963	0
233.633	-0.624376	-1.95962	0
233.641	-0.609373	-1.95977	0
233.642	-0.595	-1.9596	0
233.647	-0.591736	-1.95962	0
233.65	-0.600478	-1.95969	0
233.651	-0.609774	-1.95934	0
233.652	-0.609526	-1.95945	0
233.654	-0.610156	-1.95953	0
233.657	-0.621189	-1.95963	0
233.659	-0.621914	-1.9596	0
233.661	-0.601738	-1.95963	0
233.667	-0.605823	-1.95937	0
233.671	-0.600517	-1.95962	0
233.675	-0.61592	-1.95962	0
233.677	-0.619585	-1.95962	0
233.685	-0.620597	-1.95972	0
233.686	-0.591469	-1.95966	0
233.692	-0.580417	-1.95967	0
233.696	-0.574424	-1.95956	0
233.697	-0.580799	-1.95963	0
233.7	-0.587919	-1.95965	0
233.704	-0.607426	-1.9597	0
233.705	-0.591908	-1.95971	0
233.707	-0.596928	-1.95975	0
233.708	-0.595516	-1.95963	0
233.713	-0.584387	-1.9596	0
233.715	-0.58935	-1.95956	0
233.717	-0.596985	-1.95946	0
233.721	-0.585284	-1.9597	0
233.724	-0.569537	-1.95963	0
233.726	-0.585533	-1.95951	0
233.728	-0.578776	-1.95948	0
233.729	-0.587136	-1.95957	0
233.732	-0.572477	-1.95961	0
233.735	-0.569365	-1.95962	0
233.737	-0.584769	-1.9596	0
233.738	-0.576428	-1.95965	0
233.743	-0.570052	-1.95963	0
233.745	-0.573164	-1.95949	0
233.746	-0.580971	-1.95966	0
233.748	-0.572534	-1.95963	0
233.749	-0.586468	-1.9597	0
233.751	-0.577516	-1.95962	0
233.754	-0.570224	-1.95958	0
233.755	-0.580513	-1.95963	0
233.758	-0.582269	-1.95961	0
233.759	-0.575015	-1.95967	0
233.761	-0.574424	-1.95959	0
233.763	-0.567304	-1.95972	0
233.768	-0.579444	-1.95965	0
233.769	-0.572515	-1.95961	0
233.771	-0.582918	-1.95961	0
233.774	-0.580417	-1.95962	0
233.775	-0.574385	-1.95963	0
233.782	-0.580493	-1.95948	0
233.784	-0.575588	-1.95981	0
233.786	-0.561692	-1.95963	0
233.79	-0.572018	-1.95959	0
233.793	-0.565185	-1.95962	0
233.794	-0.573813	-1.95962	0
233.797	-0.576447	-1.95959	0
233.799	-0.580646	-1.95963	0
233.802	-0.582383	-1.95967	0
233.803	-0.585895	-1.95965	0
233.807	-0.584063	-1.95961	0
233.808	-0.563906	-1.95969	0
233.812	-0.5653	-1.95964	0
233.815	-0.586811	-1.95969	0
233.822	-0.579501	-1.9596	0
233.825	-0.572057	-1.95965	0
233.829	-0.591793	-1.95966	0
233.83	-0.572706	-1.95962	0
233.84	-0.560852	-1.9597	0
233.847	-0.559611	-1.95955	0
233.851	-0.565605	-1.95978	0
233.854	-0.564746	-1.95966	0
233.862	-0.570262	-1.95962	0
233.863	-0.583204	-1.95966	0
233.866	-0.585437	-1.95967	0
233.869	-0.582708	-1.95965	0
233.873	-0.568983	-1.9597	0
233.877	-0.565567	-1.95966	0
233.885	-0.565929	-1.95974	0
233.888	-0.543444	-1.95967	0
233.894	-0.54436	-1.95965	0
233.9	-0.546555	-1.9596	0
233.902	-0.548082	-1.95977	0
233.905	-0.536649	-1.95961	0
233.911	-0.533747	-1.95962	0
233.921	-0.542203	-1.95961	0
233.922	-0.540333	-1.95965	0
233.924	-0.542146	-1.95967	0
233.926	-0.548445	-1.95956	0
233.928	-0.544341	-1.95963	0
233.93	-0.553179	-1.95958	0
233.933	-0.549571	-1.95955	0
233.936	-0.544456	-1.95963	0
233.95	-0.540829	-1.95965	0
233.952	-0.557111	-1.9596	0
233.953	-0.565013	-1.95967	0
233.955	-0.54625	-1.95958	0
233.964	-0.53306	-1.95965	0
233.97	-0.529472	-1.95972	0
233.975	-0.517046	-1.95963	0
233.987	-0.525043	-1.9596	0
233.989	-0.533118	-1.95958	0
233.993	-0.54102	-1.95965	0
233.997	-0.546803	-1.95967	0
234	-0.549667	-1.95958	0
234.003	-0.548808	-1.95969	0
234.007	-0.561501	-1.95963	0
234.01	-0.567552	-1.95961	0
234.012	-0.551117	-1.95967	0
234.015	-0.54018	-1.95963	0
234.02	-0.533671	-1.95958	0
234.022	-0.531018	-1.9597	0
234.025	-0.549075	-1.95987	0
234.026	-0.535599	-1.95967	0
234.028	-0.54856	-1.95953	0
234.029	-0.548999	-1.95951	0
234.031	-0.55797	-1.9597	0
234.032	-0.545773	-1.95963	0
234.035	-0.540772	-1.95966	0
234.038	-0.546231	-1.95962	0
234.04	-0.552186	-1.95965	0
234.042	-0.553083	-1.9597	0
234.044	-0.552167	-1.95961	0
234.046	-0.545945	-1.95962	0
234.05	-0.53495	-1.95976	0
234.055	-0.538061	-1.9597	0
234.061	-0.5293	-1.95963	0
234.064	-0.532984	-1.95973	0
234.068	-0.536859	-1.95964	0
234.071	-0.541726	-1.95966	0
234.073	-0.54291	-1.95958	0
234.076	-0.536076	-1.95969	0
234.078	-0.53348	-1.95968	0
234.081	-0.53745	-1.95961	0
234.083	-0.548369	-1.9596	0
234.085	-0.537947	-1.95972	0
234.089	-0.536916	-1.95963	0
234.09	-0.53119	-1.95962	0
234.095	-0.548101	-1.95962	0
234.101	-0.544475	-1.95952	0
234.103	-0.539684	-1.95947	0
234.105	-0.534186	-1.95965	0
234.11	-0.537718	-1.95965	0
234.113	-0.533347	-1.95965	0
234.116	-0.532239	-1.95957	0
234.118	-0.526647	-1.95966	0
234.12	-0.522047	-1.9596	0
234.122	-0.52052	-1.95966	0
234.128	-0.522218	-1.95965	0
234.129	-0.529624	-1.9596	0
234.13	-0.521531	-1.95965	0
234.134	-0.505097	-1.95965	0
234.138	-0.498282	-1.95966	0
234.149	-0.503092	-1.95946	0
234.15	-0.503302	-1.95967	0
234.155	-0.511434	-1.95959	0
234.157	-0.494637	-1.9596	0
234.163	-0.490017	-1.95964	0
234.167	-0.491449	-1.95956	0
234.169	-0.489426	-1.9597	0
234.172	-0.492556	-1.95969	0
234.174	-0.512579	-1.95959	0
234.176	-0.508361	-1.95967	0
234.178	-0.51989	-1.95965	0
234.18	-0.531972	-1.95956	0
234.181	-0.526742	-1.95958	0
234.183	-0.522715	-1.9597	0
234.184	-0.513648	-1.95965	0
234.191	-0.515251	-1.95963	0
234.193	-0.521989	-1.95959	0
234.195	-0.521627	-1.95972	0
234.196	-0.498091	-1.95967	0
234.198	-0.481218	-1.95966	0
234.203	-0.487288	-1.95959	0
234.205	-0.499485	-1.95958	0
234.207	-0.501661	-1.95963	0
234.21	-0.491048	-1.95961	0
234.212	-0.48849	-1.95971	0
234.216	-0.482745	-1.95963	0
234.221	-0.490323	-1.95957	0
234.223	-0.5042	-1.95964	0
234.225	-0.477744	-1.95958	0
234.227	-0.464974	-1.95967	0
234.229	-0.454113	-1.95963	0
234.233	-0.454552	-1.95963	0
234.237	-0.455984	-1.95965	0
234.238	-0.463562	-1.95969	0
234.24	-0.468257	-1.9597	0
234.241	-0.470147	-1.95967	0
234.245	-0.477057	-1.95962	0
234.247	-0.484806	-1.95962	0
234.249	-0.480149	-1.9596	0
234.251	-0.490914	-1.95958	0
234.253	-0.487001	-1.95968	0
234.255	-0.498301	-1.95968	0
234.256	-0.490647	-1.95956	0
234.259	-0.491373	-1.95965	0
234.261	-0.5	-1.9596	0
234.263	-0.483776	-1.95975	0
234.266	-0.487021	-1.95958	0
234.269	-0.492938	-1.95958	0
234.273	-0.492785	-1.95956	0
234.275	-0.500287	-1.95965	0
234.277	-0.497404	-1.95965	0
234.279	-0.484845	-1.9597	0
234.282	-0.476675	-1.95969	0
234.284	-0.46318	-1.95967	0
234.287	-0.46381	-1.95959	0
234.292	-0.452643	-1.95965	0
234.294	-0.466139	-1.95954	0
234.295	-0.468219	-1.95959	0
234.297	-0.449608	-1.9596	0
234.301	-0.46045	-1.95961	0
234.304	-0.47677	-1.95953	0
234.306	-0.488051	-1.95973	0
234.307	-0.471655	-1.95968	0
234.308	-0.459076	-1.95962	0
234.31	-0.466635	-1.95969	0
234.312	-0.474938	-1.95967	0
234.314	-0.46192	-1.95973	0
234.322	-0.445905	-1.95958	0
234.327	-0.43262	-1.95965	0
234.332	-0.433575	-1.95958	0
234.334	-0.441057	-1.95967	0
234.338	-0.446993	-1.95967	0
234.339	-0.455029	-1.95948	0
234.341	-0.460603	-1.95966	0
234.343	-0.446822	-1.95954	0
234.347	-0.451136	-1.95963	0
234.35	-0.445142	-1.95953	0
234.352	-0.446535	-1.95964	0
234.357	-0.454915	-1.95963	0
234.359	-0.461538	-1.95962	0
234.361	-0.465699	-1.95963	0
234.362	-0.453063	-1.95974	0
234.367	-0.447375	-1.95974	0
234.37	-0.441611	-1.95962	0
234.372	-0.450964	-1.95962	0
234.375	-0.448081	-1.95962	0
234.377	-0.451059	-1.95963	0
234.38	-0.445085	-1.95965	0
234.382	-0.45272	-1.95966	0
234.383	-0.449666	-1.95962	0
234.385	-0.430024	-1.95972	0
234.388	-0.419583	-1.95975	0
234.391	-0.420557	-1.95961	0
234.393	-0.4251	-1.95965	0
234.396	-0.424374	-1.95988	0
234.401	-0.429929	-1.95971	0
234.403	-0.426627	-1.95967	0
234.406	-0.434548	-1.95962	0
234.407	-0.440694	-1.9596	0
234.408	-0.455106	-1.95966	0
234.41	-0.457339	-1.95966	0
234.413	-0.453369	-1.9596	0
234.415	-0.45961	-1.95968	0
234.417	-0.45398	-1.95971	0
234.418	-0.4297	-1.95963	0
234.422	-0.420042	-1.95962	0
234.425	-0.418648	-1.95963	0
234.431	-0.424871	-1.95959	0
234.432	-0.44016	-1.95962	0
234.435	-0.429146	-1.9596	0
234.436	-0.443119	-1.95971	0
234.439	-0.447089	-1.95962	0
234.44	-0.457339	-1.95963	0
234.442	-0.442832	-1.95965	0
234.446	-0.435961	-1.95962	0
234.45	-0.426703	-1.95968	0
234.452	-0.41924	-1.95962	0
234.458	-0.419011	-1.95963	0
234.463	-0.422657	-1.9596	0
234.466	-0.427428	-1.95972	0
234.468	-0.427161	-1.95958	0
234.47	-0.429872	-1.95966	0
234.474	-0.424947	-1.95969	0
234.477	-0.425596	-1.95962	0
234.48	-0.428841	-1.95967	0
234.484	-0.4251	-1.9596	0
234.486	-0.433995	-1.9596	0
234.488	-0.440561	-1.9596	0
234.49	-0.43138	-1.95968	0
234.493	-0.431723	-1.9597	0
234.495	-0.433537	-1.95958	0
234.496	-0.433059	-1.9596	0
234.498	-0.431132	-1.95964	0
234.5	-0.438576	-1.95957	0
234.503	-0.449017	-1.95962	0
234.505	-0.447585	-1.95977	0
234.508	-0.441382	-1.95963	0
234.509	-0.450257	-1.95953	0
234.51	-0.439454	-1.95969	0
234.514	-0.440351	-1.95967	0
234.516	-0.426245	-1.95972	0
234.52	-0.416701	-1.95965	0
234.524	-0.403359	-1.95967	0
234.533	-0.405	-1.9596	0
234.535	-0.409009	-1.9596	0
234.536	-0.415499	-1.95971	0
234.538	-0.422637	-1.95957	0
234.539	-0.441267	-1.95962	0
234.541	-0.422408	-1.95963	0
234.544	-0.419927	-1.95961	0
234.546	-0.426665	-1.95965	0
234.549	-0.424947	-1.9596	0
234.55	-0.430463	-1.95965	0
234.555	-0.417694	-1.95972	0
234.559	-0.421645	-1.95962	0
234.563	-0.417007	-1.95959	0
234.569	-0.425424	-1.95965	0
234.572	-0.406546	-1.95969	0
234.577	-0.403664	-1.95958	0
234.578	-0.406795	-1.9596	0
234.58	-0.415957	-1.95963	0
234.582	-0.400209	-1.95973	0
234.585	-0.406069	-1.95959	0
234.587	-0.400801	-1.95962	0
234.594	-0.408169	-1.95968	0
234.596	-0.40542	-1.95966	0
234.598	-0.413055	-1.95964	0
234.601	-0.407157	-1.95972	0
234.605	-0.404447	-1.95965	0
234.608	-0.394426	-1.95969	0
234.615	-0.39099	-1.9596	0
234.619	-0.398415	-1.95968	0
234.621	-0.405726	-1.95958	0
234.622	-0.414239	-1.95957	0
234.625	-0.412235	-1.9596	0
234.628	-0.410688	-1.95972	0
234.631	-0.411605	-1.95964	0
234.633	-0.418686	-1.95963	0
234.638	-0.41065	-1.95967	0
234.639	-0.390646	-1.9596	0
234.643	-0.380511	-1.95963	0
234.651	-0.38198	-1.95965	0
234.656	-0.384996	-1.95965	0
234.661	-0.376636	-1.95967	0
234.666	-0.372627	-1.95962	0
234.669	-0.370795	-1.95958	0
234.673	-0.376101	-1.95956	0
234.676	-0.372188	-1.95967	0
234.686	-0.368676	-1.95962	0
234.694	-0.36524	-1.9596	0
234.697	-0.358846	-1.95963	0
234.705	-0.365622	-1.95962	0
234.706	-0.374651	-1.95963	0
234.71	-0.375032	-1.9597	0
234.713	-0.373295	-1.95958	0
234.719	-0.373448	-1.95956	0
234.722	-0.374593	-1.95964	0
234.726	-0.371482	-1.95966	0
234.735	-0.366214	-1.95965	0
234.741	-0.371921	-1.95967	0
234.744	-0.375452	-1.95967	0
234.748	-0.369726	-1.95967	0
234.751	-0.376426	-1.95963	0
234.755	-0.377285	-1.95965	0
234.759	-0.383431	-1.95963	0
234.762	-0.375987	-1.95965	0
234.77	-0.36881	-1.9596	0
234.779	-0.374212	-1.95965	0
234.785	-0.361557	-1.95963	0
234.799	-0.353921	-1.95965	0
234.809	-0.353673	-1.95963	0
234.814	-0.358388	-1.95961	0
234.83	-0.356384	-1.95961	0
234.837	-0.359457	-1.95965	0
234.841	-0.367378	-1.95958	0
234.843	-0.371119	-1.95962	0
234.847	-0.369249	-1.95963	0
234.853	-0.364782	-1.95965	0
234.857	-0.358732	-1.95963	0
234.869	-0.364477	-1.95959	0
234.874	-0.370031	-1.95961	0
234.879	-0.369459	-1.95967	0
234.883	-0.373181	-1.95958	0
234.889	-0.361156	-1.9597	0
234.896	-0.350295	-1.95962	0
234.909	-0.351135	-1.95969	0
234.914	-0.35835	-1.95965	0
234.922	-0.355258	-1.95963	0
234.929	-0.361194	-1.95966	0
234.932	-0.362015	-1.95962	0
234.938	-0.361633	-1.95964	0
234.94	-0.366825	-1.95965	0
234.944	-0.363122	-1.95964	0
234.948	-0.365546	-1.95963	0
234.952	-0.355525	-1.9597	0
234.957	-0.354704	-1.95964	0
234.964	-0.345065	-1.9597	0
234.973	-0.344435	-1.95958	0
234.98	-0.346611	-1.95972	0
234.984	-0.350829	-1.95962	0
234.987	-0.357014	-1.95958	0
234.99	-0.360182	-1.95962	0
234.995	-0.361671	-1.95961	0
234.998	-0.365202	-1.95963	0
235.002	-0.362129	-1.95964	0
235.008	-0.356594	-1.95965	0
235.009	-0.34098	-1.95961	0
235.018	-0.347126	-1.95965	0
235.021	-0.35333	-1.9596	0
235.025	-0.352223	-1.95977	0
235.033	-0.342984	-1.95965	0
235.037	-0.336971	-1.95967	0
235.045	-0.33741	-1.95963	0
235.048	-0.344358	-1.95969	0
235.053	-0.347088	-1.95967	0
235.059	-0.348386	-1.9596	0
235.066	-0.34558	-1.95962	0
235.069	-0.339224	-1.95964	0
235.075	-0.346057	-1.95958	0
235.078	-0.347546	-1.95968	0
235.081	-0.355353	-1.95962	0
235.085	-0.350772	-1.95969	0
235.092	-0.354036	-1.95963	0
235.098	-0.34726	-1.95958	0
235.11	-0.345332	-1.95965	0
235.115	-0.343748	-1.95965	0
235.118	-0.345465	-1.95966	0
235.125	-0.333307	-1.95976	0
235.139	-0.324221	-1.95965	0
235.151	-0.319926	-1.95957	0
235.16	-0.315326	-1.95962	0
235.176	-0.31523	-1.95963	0
235.188	-0.320861	-1.95961	0
235.201	-0.321243	-1.95965	0
235.216	-0.317807	-1.95966	0
235.225	-0.310726	-1.95967	0
235.241	-0.313932	-1.95965	0
235.247	-0.319124	-1.95964	0
235.259	-0.31796	-1.95955	0
235.27	-0.321472	-1.9596	0
235.288	-0.324106	-1.95965	0
235.298	-0.329527	-1.95968	0
235.31	-0.325328	-1.95962	0
235.328	-0.328363	-1.95959	0
235.338	-0.333956	-1.95961	0
235.346	-0.339682	-1.95965	0
235.356	-0.335158	-1.95962	0
235.37	-0.327981	-1.95968	0
235.383	-0.328229	-1.95964	0
235.405	-0.323858	-1.95962	0
235.416	-0.325156	-1.95962	0
235.43	-0.325786	-1.9596	0
235.437	-0.325691	-1.95964	0
235.45	-0.323667	-1.95962	0
235.456	-0.328897	-1.95962	0
235.465	-0.329565	-1.95965	0
235.48	-0.326301	-1.95962	0
235.494	-0.324354	-1.95965	0
235.507	-0.32382	-1.9597	0
235.524	-0.324469	-1.95967	0
235.543	-0.31943	-1.95965	0
235.572	-0.317216	-1.95963	0
235.58	-0.322656	-1.95963	0
235.588	-0.328	-1.9597	0
235.601	-0.328993	-1.95967	0
235.613	-0.327046	-1.95967	0
235.628	-0.3188	-1.95964	0
235.651	-0.317712	-1.95968	0
235.669	-0.315803	-1.95969	0
235.688	-0.318609	-1.95967	0
235.696	-0.324087	-1.95966	0
235.72	-0.318933	-1.95966	0
235.73	-0.322064	-1.95967	0
235.745	-0.320842	-1.95962	0
235.753	-0.326244	-1.95964	0
235.763	-0.325118	-1.95969	0
235.77	-0.322904	-1.95961	0
235.786	-0.323515	-1.95965	0
235.8	-0.319334	-1.95962	0
235.811	-0.316777	-1.95962	0
235.83	-0.320403	-1.95963	0
235.854	-0.320861	-1.95961	0
235.862	-0.318418	-1.95959	0
235.874	-0.322045	-1.95967	0
235.877	-0.316166	-1.9596	0
235.896	-0.317216	-1.95967	0
235.909	-0.318437	-1.95967	0
235.929	-0.319468	-1.95957	0
235.942	-0.317426	-1.95966	0
235.955	-0.313875	-1.95965	0
235.969	-0.306946	-1.95956	0
235.992	-0.309695	-1.95969	0
236.016	-0.310592	-1.95969	0
236.029	-0.311069	-1.95967	0
236.042	-0.306965	-1.95963	0
236.057	-0.298223	-1.95967	0
236.096	-0.293852	-1.95958	0
236.103	-0.299655	-1.95965	0
236.119	-0.299846	-1.95959	0
236.137	-0.298605	-1.95969	0
236.151	-0.296601	-1.9597	0
236.184	-0.290264	-1.9596	0
236.199	-0.295856	-1.95965	0
236.223	-0.299044	-1.9596	0
236.24	-0.304408	-1.95958	0
236.246	-0.301735	-1.95965	0
236.273	-0.299827	-1.95966	0
236.302	-0.302995	-1.95965	0
236.319	-0.308512	-1.95967	0
236.334	-0.303071	-1.95966	0
236.354	-0.302461	-1.95968	0
236.367	-0.293566	-1.95961	0
236.392	-0.294692	-1.95968	0
236.406	-0.292363	-1.95969	0
236.419	-0.29767	-1.95962	0
236.43	-0.295131	-1.95961	0
236.457	-0.295933	-1.95969	0
236.498	-0.287992	-1.95968	0
236.515	-0.286885	-1.95963	0
236.536	-0.292344	-1.95962	0
236.55	-0.29473	-1.95965	0
236.569	-0.29996	-1.95962	0
236.587	-0.296524	-1.95958	0
236.628	-0.292268	-1.95965	0
236.682	-0.290664	-1.95962	0
236.702	-0.284194	-1.95962	0
236.732	-0.282838	-1.95963	0
236.753	-0.285988	-1.95965	0
236.78	-0.286026	-1.95965	0
236.81	-0.291275	-1.95964	0
236.836	-0.29662	-1.95964	0
236.868	-0.298796	-1.95962	0
236.91	-0.295265	-1.9597	0
236.939	-0.289576	-1.95963	0
236.986	-0.290607	-1.95965	0
237.002	-0.296257	-1.95966	0
237.048	-0.297135	-1.95967	0
237.077	-0.29368	-1.95963	0
237.129	-0.296849	-1.95959	0
237.166	-0.299674	-1.95965	0
237.211	-0.299273	-1.95962	0
237.257	-0.296009	-1.95962	0
237.286	-0.29494	-1.95972	0
237.327	-0.29326	-1.95962	0
237.353	-0.294024	-1.95971	0
237.376	-0.299159	-1.95967	0
237.392	-0.301907	-1.95957	0
237.407	-0.302785	-1.95969	0
237.449	-0.300781	-1.95958	0
237.473	-0.306755	-1.95966	0
237.495	-0.308836	-1.95968	0
237.53	-0.309714	-1.95966	0
237.554	-0.304045	-1.95966	0
237.582	-0.301754	-1.95965	0
237.632	-0.298032	-1.95963	0
237.718	-0.299044	-1.95965	0
237.768	-0.302117	-1.95965	0
237.789	-0.302518	-1.95963	0
237.799	-0.297288	-1.95962	0
237.86	-0.298032	-1.95964	0
237.882	-0.303644	-1.95965	0
237.93	-0.306546	-1.95966	0
237.946	-0.302022	-1.95968	0
238.003	-0.300762	-1.9596	0
238.06	-0.297307	-1.95958	0
238.174	-0.300208	-1.95959	0
238.219	-0.298624	-1.95967	0
238.29	-0.301793	-1.95963	0
238.321	-0.302728	-1.95963	0
238.385	-0.302919	-1.95956	0
238.426	-0.301239	-1.95972	0
238.441	-0.300056	-1.9597	0
238.485	-0.297746	-1.9597	0
238.509	-0.29076	-1.9596	0
238.544	-0.282724	-1.95965	0
238.592	-0.283316	-1.95962	0
238.646	-0.286293	-1.95968	0
238.704	-0.284766	-1.95965	0
238.758	-0.287954	-1.95963	0
238.803	-0.293165	-1.95963	0
238.844	-0.296047	-1.95961	0
238.936	-0.293718	-1.95966	0
238.998	-0.299101	-1.95963	0
239.052	-0.300132	-1.9596	0
239.142	-0.305324	-1.95961	0
239.18	-0.31063	-1.95965	0
239.22	-0.31378	-1.95965	0
239.269	-0.314314	-1.95956	0
239.34	-0.319926	-1.95961	0
239.368	-0.323266	-1.95965	0
239.419	-0.328382	-1.95969	0
239.499	-0.333593	-1.95967	0
239.542	-0.332639	-1.95962	0
239.55	-0.325118	-1.95965	0
239.644	-0.319792	-1.95966	0
239.696	-0.31441	-1.95962	0
239.705	-0.31504	-1.95965	0
239.771	-0.315994	-1.95963	0
239.861	-0.311928	-1.95965	0
239.968	-0.315059	-1.95967	0
240.011	-0.320766	-1.95965	0
240.058	-0.323629	-1.95964	0
240.166	-0.319468	-1.95965	0
240.225	-0.324908	-1.95961	0
240.249	-0.330119	-1.9596	0
240.307	-0.335311	-1.95962	0
240.417	-0.336151	-1.95965	0
240.535	-0.341247	-1.95956	0
240.585	-0.339796	-1.95963	0
240.646	-0.335406	-1.95962	0
240.723	-0.338632	-1.95969	0
240.742	-0.341495	-1.95969	0
240.783	-0.336361	-1.9596	0
240.813	-0.337506	-1.95965	0
240.836	-0.330195	-1.95967	0
240.846	-0.331818	-1.95963	0
240.863	-0.324373	-1.95963	0
240.955	-0.325366	-1.95966	0
241.009	-0.324068	-1.95962	0
241.049	-0.329355	-1.95965	0
241.087	-0.325099	-1.95957	0
241.175	-0.330253	-1.95963	0
241.276	-0.331111	-1.95965	0
241.361	-0.32968	-1.9596	0
241.474	-0.331016	-1.95965	0
241.606	-0.336265	-1.95959	0
241.669	-0.337506	-1.95958	0
241.745	-0.338212	-1.95961	0
241.867	-0.338632	-1.95967	0
241.995	-0.332448	-1.9597	0
242.066	-0.326569	-1.95967	0
242.138	-0.332486	-1.95957	0
242.191	-0.337735	-1.95963	0
242.255	-0.333631	-1.95967	0
242.32	-0.334433	-1.95964	0
242.383	-0.334662	-1.95965	0
242.4	-0.326301	-1.95961	0
242.498	-0.324832	-1.95969	0
242.615	-0.330062	-1.95965	0
242.713	-0.331035	-1.95965	0
242.762	-0.33365	-1.95963	0
242.84	-0.332409	-1.95956	0
242.878	-0.321472	-1.95967	0
242.925	-0.318342	-1.95963	0
242.979	-0.311661	-1.95963	0
243.162	-0.312482	-1.9597	0
243.283	-0.317712	-1.95965	0
243.372	-0.316471	-1.95962	0
243.521	-0.321568	-1.95965	0
243.637	-0.325003	-1.9596	0
243.717	-0.330214	-1.95961	0
243.752	-0.335463	-1.95965	0
243.825	-0.330596	-1.95966	0
243.975	-0.328267	-1.95969	0
244.125	-0.331321	-1.95967	0
244.264	-0.332314	-1.95963	0
244.379	-0.332715	-1.95961	0
244.547	-0.33575	-1.9596	0
244.615	-0.340904	-1.95963	0
244.713	-0.346897	-1.95965	0
245.09	-0.352089	-1.95965	0
245.22	-0.357357	-1.95965	0
245.279	-0.352299	-1.95969	0
245.413	-0.346114	-1.95963	0
245.523	-0.353311	-1.95965	0
245.657	-0.350047	-1.95964	0
245.763	-0.355467	-1.9596	0
245.844	-0.357682	-1.95967	0
245.899	-0.351955	-1.9596	0
245.953	-0.351535	-1.95963	0
246.049	-0.354437	-1.95967	0
246.155	-0.359686	-1.9596	0
246.189	-0.355238	-1.95962	0
246.22	-0.354131	-1.95966	0
246.36	-0.350409	-1.95963	0
246.459	-0.347164	-1.95963	0
246.565	-0.343938	-1.95968	0
246.703	-0.344416	-1.95959	0
246.761	-0.347489	-1.95965	0
246.907	-0.345465	-1.95956	0
246.942	-0.348825	-1.95968	0
247.033	-0.353883	-1.95963	0
247.112	-0.351421	-1.95964	0
247.143	-0.356804	-1.95962	0
247.181	-0.359953	-1.9596	0
247.258	-0.362835	-1.95963	0
247.296	-0.363122	-1.95969	0
247.336	-0.358961	-1.95958	0
247.358	-0.352242	-1.95965	0
247.385	-0.355162	-1.95963	0
247.4	-0.358331	-1.9596	0
247.461	-0.351478	-1.95967	0
247.528	-0.347451	-1.95962	0
247.589	-0.350524	-1.95962	0
247.713	-0.353883	-1.95964	0
247.803	-0.354838	-1.95967	0
247.935	-0.354914	-1.95965	0
248.058	-0.353864	-1.95965	0
248.102	-0.347794	-1.95958	0
248.229	-0.350753	-1.95965	0
248.281	-0.350333	-1.95963	0
248.351	-0.353311	-1.95962	0
248.382	-0.346611	-1.95961	0
248.474	-0.344797	-1.95968	0
248.589	-0.343232	-1.9596	0
248.751	-0.348405	-1.9596	0
248.825	-0.353731	-1.95965	0
248.852	-0.359266	-1.95962	0
248.928	-0.364649	-1.95966	0
248.955	-0.364324	-1.95968	0
249.123	-0.365279	-1.95963	0
249.226	-0.36337	-1.95965	0
249.446	-0.362225	-1.95965	0
249.582	-0.358483	-1.95962	0
249.63	-0.355105	-1.95957	0
249.75	-0.351803	-1.95972	0
249.814	-0.357033	-1.9596	0
249.905	-0.357796	-1.95963	0
249.962	-0.356116	-1.95963	0
250.115	-0.358407	-1.95967	0
250.18	-0.361499	-1.95965	0
250.212	-0.357319	-1.95962	0
250.399	-0.356002	-1.95963	0
250.575	-0.357109	-1.95963	0
250.618	-0.357815	-1.95968	0
250.725	-0.354437	-1.95961	0
250.808	-0.355181	-1.95964	0
250.994	-0.356097	-1.95966	0
251.131	-0.355028	-1.95969	0
251.255	-0.358178	-1.95963	0
251.326	-0.36421	-1.95967	0
251.388	-0.360316	-1.95963	0
251.444	-0.353864	-1.95958	0
251.525	-0.356937	-1.95968	0
251.619	-0.363389	-1.95965	0
251.669	-0.357834	-1.95965	0
251.741	-0.355945	-1.95963	0
251.818	-0.352738	-1.95965	0
251.884	-0.358502	-1.95962	0
252.115	-0.359323	-1.95962	0
252.254	-0.362492	-1.9596	0
252.407	-0.363618	-1.95964	0
252.711	-0.367016	-1.95961	0
252.876	-0.370089	-1.95965	0
252.909	-0.375452	-1.95962	0
252.94	-0.374002	-1.95963	0
253.056	-0.372379	-1.95964	0
253.128	-0.373372	-1.95967	0
253.197	-0.370051	-1.95962	0
253.264	-0.362148	-1.95967	0
253.28	-0.368619	-1.95963	0
253.305	-0.374078	-1.95965	0
253.348	-0.369955	-1.95965	0
253.423	-0.366481	-1.95959	0
253.474	-0.360106	-1.95965	0
253.508	-0.354284	-1.95965	0
253.563	-0.35312	-1.95963	0
253.612	-0.350848	-1.95963	0
253.644	-0.357071	-1.95963	0
253.678	-0.356956	-1.95967	0
253.84	-0.353635	-1.95961	0
253.922	-0.354532	-1.95965	0
254.011	-0.356842	-1.95962	0
254.197	-0.361938	-1.95957	0
254.229	-0.362358	-1.95967	0
254.318	-0.355353	-1.95969	0
254.38	-0.354036	-1.95966	0
254.466	-0.355105	-1.95964	0
254.727	-0.351707	-1.95968	0
254.909	-0.354876	-1.95963	0
255.116	-0.355868	-1.95965	0
255.206	-0.353196	-1.95965	0
255.314	-0.352089	-1.95961	0
255.49	-0.348615	-1.95964	0
255.661	-0.353692	-1.95965	0
255.793	-0.354322	-1.9596	0
255.95	-0.353043	-1.95963	0
255.996	-0.347661	-1.95965	0
256.005	-0.338441	-1.95962	0
256.024	-0.340445	-1.95967	0
256.03	-0.343786	-1.95968	0
256.047	-0.338747	-1.95965	0
256.06	-0.329928	-1.95969	0
256.075	-0.333001	-1.95965	0
256.095	-0.327351	-1.95962	0
256.104	-0.318571	-1.9596	0
256.134	-0.32193	-1.95963	0
256.142	-0.324373	-1.95965	0
256.152	-0.331531	-1.95965	0
256.163	-0.325385	-1.95966	0
256.184	-0.319602	-1.95967	0
256.201	-0.322866	-1.95969	0
256.21	-0.323133	-1.95963	0
256.217	-0.314429	-1.95969	0
256.249	-0.305419	-1.95965	0
256.263	-0.298872	-1.95961	0
256.277	-0.300342	-1.9596	0
256.291	-0.305896	-1.95959	0
256.3	-0.308702	-1.95962	0
256.304	-0.315154	-1.95962	0
256.307	-0.322694	-1.95963	0
256.311	-0.316567	-1.95964	0
256.324	-0.317158	-1.95966	0
256.332	-0.31441	-1.95964	0
256.352	-0.313074	-1.95967	0
256.357	-0.301888	-1.95963	0
256.385	-0.303052	-1.95966	0
256.394	-0.308473	-1.95961	0
256.399	-0.307519	-1.95967	0
256.419	-0.306507	-1.95966	0
256.443	-0.311985	-1.95958	0
256.458	-0.308569	-1.9596	0
256.472	-0.303281	-1.95965	0
256.496	-0.306202	-1.9596	0
256.501	-0.308244	-1.95966	0
256.512	-0.311184	-1.95965	0
256.53	-0.30771	-1.95969	0
256.536	-0.303969	-1.95968	0
256.544	-0.29578	-1.95967	0
256.562	-0.290626	-1.95968	0
256.576	-0.289729	-1.95962	0
256.585	-0.295246	-1.95966	0
256.602	-0.29347	-1.95965	0
256.607	-0.298777	-1.95963	0
256.611	-0.300208	-1.95962	0
256.621	-0.301125	-1.95966	0
256.629	-0.293299	-1.95963	0
256.654	-0.285148	-1.95962	0
256.675	-0.290397	-1.95965	0
256.685	-0.292802	-1.95959	0
256.69	-0.291103	-1.9596	0
256.721	-0.281884	-1.95966	0
256.739	-0.284671	-1.95964	0
256.748	-0.290149	-1.95966	0
256.757	-0.287343	-1.95968	0
256.777	-0.278486	-1.95965	0
256.784	-0.277093	-1.95976	0
256.794	-0.269133	-1.95964	0
256.816	-0.268561	-1.95959	0
256.829	-0.270813	-1.95963	0
256.835	-0.276788	-1.95963	0
256.841	-0.280491	-1.95969	0
256.851	-0.270107	-1.95969	0
256.857	-0.264056	-1.95961	0
256.869	-0.254741	-1.95967	0
256.877	-0.248099	-1.95965	0
256.886	-0.241113	-1.95962	0
256.911	-0.23468	-1.95963	0
256.937	-0.237944	-1.95967	0
256.942	-0.243632	-1.95971	0
256.962	-0.240464	-1.95963	0
256.978	-0.234699	-1.95965	0
257.003	-0.231569	-1.95963	0
257.026	-0.233726	-1.95959	0
257.032	-0.231378	-1.95965	0
257.063	-0.229698	-1.95966	0
257.087	-0.223495	-1.95965	0
257.134	-0.226129	-1.95965	0
257.146	-0.229164	-1.95962	0
257.165	-0.234489	-1.95958	0
257.195	-0.22819	-1.95963	0
257.209	-0.223991	-1.9596	0
257.237	-0.221987	-1.95966	0
257.265	-0.22735	-1.95958	0
257.283	-0.227961	-1.95964	0
257.326	-0.228801	-1.95962	0
257.357	-0.223304	-1.95969	0
257.371	-0.219925	-1.95961	0
257.423	-0.220326	-1.95966	0
257.453	-0.214199	-1.95962	0
257.471	-0.217864	-1.95962	0
257.488	-0.221128	-1.95961	0
257.514	-0.222235	-1.95962	0
257.542	-0.22107	-1.95963	0
257.564	-0.214542	-1.95963	0
257.598	-0.215058	-1.95965	0
257.628	-0.217959	-1.95961	0
257.651	-0.22149	-1.95962	0
257.671	-0.218684	-1.95964	0
257.698	-0.212729	-1.95965	0
257.729	-0.208931	-1.95966	0
257.753	-0.202116	-1.95966	0
257.807	-0.199959	-1.95972	0
257.859	-0.201085	-1.95958	0
257.884	-0.206697	-1.95962	0
257.919	-0.203223	-1.95963	0
257.94	-0.197421	-1.95967	0
258.003	-0.19805	-1.95962	0
258.034	-0.203414	-1.95965	0
258.079	-0.1991	-1.95959	0
258.101	-0.193202	-1.95969	0
258.175	-0.189232	-1.95963	0
258.215	-0.195474	-1.95963	0
258.233	-0.19849	-1.95956	0
258.293	-0.193393	-1.95963	0
258.35	-0.194004	-1.95965	0
258.379	-0.19513	-1.9596	0
258.401	-0.192553	-1.95962	0
258.478	-0.188411	-1.95967	0
258.506	-0.181196	-1.95965	0
258.549	-0.178027	-1.95962	0
258.614	-0.183334	-1.95966	0
258.67	-0.181578	-1.9596	0
258.707	-0.18236	-1.95966	0
258.803	-0.179803	-1.95959	0
258.948	-0.178562	-1.95959	0
259.1	-0.181692	-1.95963	0
259.305	-0.180032	-1.95965	0
259.5	-0.176749	-1.95964	0
259.584	-0.170831	-1.95961	0
259.799	-0.171748	-1.95966	0
260.06	-0.170297	-1.95962	0
260.174	-0.171232	-1.95966	0
260.29	-0.174229	-1.95969	0
260.339	-0.175221	-1.95963	0
260.412	-0.172263	-1.95965	0
260.635	-0.17106	-1.95959	0
260.756	-0.167491	-1.95963	0
260.941	-0.164361	-1.95965	0
261.182	-0.163024	-1.95966	0
261.267	-0.157508	-1.95962	0
261.522	-0.158424	-1.95959	0
261.896	-0.161669	-1.95957	0
262.122	-0.164819	-1.95967	0
262.572	-0.165983	-1.95961	0
262.823	-0.162719	-1.95963	0
263.101	-0.163941	-1.95967	0
263.656	-0.162872	-1.95963	0
263.786	-0.167949	-1.95969	0
263.915	-0.173542	-1.95968	0
264.079	-0.178715	-1.95959	0
264.278	-0.172874	-1.95964	0
264.507	-0.167415	-1.95965	0
264.855	-0.166403	-1.95968	0
265.29	-0.171538	-1.95963	0
265.474	-0.176672	-1.95969	0
265.594	-0.177321	-1.9596	0
266.045	-0.178199	-1.95963	0
266.167	-0.174687	-1.95965	0
266.533	-0.177894	-1.9596	0
267.037	-0.181291	-1.95963	0
267.308	-0.186655	-1.95967	0
267.591	-0.187571	-1.95958	0
267.878	-0.186102	-1.9596	0
268.252	-0.185071	-1.95962	0
268.413	-0.185853	-1.95962	0
268.659	-0.187018	-1.95965	0
268.998	-0.185853	-1.95967	0
269.182	-0.186922	-1.95965	0
269.493	-0.190148	-1.95963	0
269.833	-0.190893	-1.95961	0
270.078	-0.196008	-1.95965	0
270.193	-0.194137	-1.9596	0
270.473	-0.197306	-1.95962	0
270.735	-0.20036	-1.9597	0
270.895	-0.205743	-1.95963	0
271.042	-0.202307	-1.95963	0
271.305	-0.2033	-1.95965	0
271.673	-0.206354	-1.95961	0
272.054	-0.207365	-1.95963	0
272.278	-0.210286	-1.95965	0
272.576	-0.215459	-1.95962	0
272.853	-0.213588	-1.95963	0
273.057	-0.208052	-1.95963	0
273.242	-0.208549	-1.95966	0
273.399	-0.208911	-1.9596	0
273.558	-0.214084	-1.95958	0
273.839	-0.217253	-1.9596	0
274.174	-0.220154	-1.95966	0
274.374	-0.217005	-1.95965	0
274.439	-0.218226	-1.95964	0
274.676	-0.221471	-1.95957	0
275.171	-0.222483	-1.95963	0
275.307	-0.218054	-1.9597	0
275.637	-0.221261	-1.95967	0
275.86	-0.224315	-1.95965	0
275.925	-0.219543	-1.95959	0
275.978	-0.213493	-1.95963	0
276.178	-0.21626	-1.95965	0
276.399	-0.219295	-1.95964	0
276.702	-0.22464	-1.95966	0
276.903	-0.227617	-1.95969	0
277.133	-0.228648	-1.95964	0
277.468	-0.229564	-1.95963	0
277.777	-0.233172	-1.95967	0
278.091	-0.236264	-1.95967	0
278.479	-0.235214	-1.95965	0
278.551	-0.230977	-1.9596	0
278.704	-0.22756	-1.95968	0
278.946	-0.232828	-1.95965	0
279.227	-0.229431	-1.95967	0
279.671	-0.230061	-1.95964	0
279.823	-0.230901	-1.95968	0
280.058	-0.234146	-1.95956	0
280.2	-0.234298	-1.95962	0
280.486	-0.232809	-1.95966	0
280.783	-0.230633	-1.95969	0
280.905	-0.22924	-1.95963	0
281.089	-0.234546	-1.95965	0
281.141	-0.23113	-1.95965	0
281.184	-0.232256	-1.95962	0
281.271	-0.237486	-1.95964	0
281.349	-0.240635	-1.95969	0
281.603	-0.244033	-1.95967	0
281.733	-0.245026	-1.95969	0
281.935	-0.240769	-1.95969	0
282.153	-0.241666	-1.9597	0
282.404	-0.240425	-1.95965	0
282.57	-0.242067	-1.95963	0
282.619	-0.240826	-1.95962	0
282.928	-0.241914	-1.95963	0
283.059	-0.247297	-1.9596	0
283.272	-0.243308	-1.95962	0
283.421	-0.237677	-1.95963	0
283.556	-0.234203	-1.95967	0
283.742	-0.231378	-1.95963	0
283.954	-0.23447	-1.95963	0
284.061	-0.230977	-1.95963	0
284.3	-0.229908	-1.95966	0
284.592	-0.226472	-1.95963	0
284.776	-0.227484	-1.95962	0
284.892	-0.224411	-1.9597	0
285.203	-0.229564	-1.95966	0
285.413	-0.234794	-1.95965	0
285.632	-0.240005	-1.95964	0
285.756	-0.242792	-1.95958	0
286.015	-0.245904	-1.95963	0
286.244	-0.243861	-1.95965	0
286.688	-0.249091	-1.95966	0
286.813	-0.252107	-1.95965	0
286.949	-0.255008	-1.95965	0
287.106	-0.25812	-1.95965	0
287.223	-0.254054	-1.95969	0
287.506	-0.257127	-1.95963	0
287.752	-0.256211	-1.95962	0
287.887	-0.255161	-1.95964	0
288.141	-0.254073	-1.95966	0
288.287	-0.255047	-1.9596	0
288.54	-0.256211	-1.95964	0
288.91	-0.259284	-1.95966	0
289.082	-0.264552	-1.95967	0
289.419	-0.267587	-1.95969	0
289.789	-0.263732	-1.95963	0
289.945	-0.262739	-1.95958	0
290.171	-0.265449	-1.9596	0
290.404	-0.262166	-1.95959	0
290.614	-0.258998	-1.95962	0
290.902	-0.2623	-1.9596	0
291.193	-0.265144	-1.95967	0
291.514	-0.264247	-1.95964	0
291.71	-0.262395	-1.95968	0
291.833	-0.262663	-1.95966	0
292.103	-0.259303	-1.95963	0
292.296	-0.253004	-1.95963	0
292.493	-0.246171	-1.95963	0
292.652	-0.251439	-1.95961	0
292.929	-0.250408	-1.95963	0
293.11	-0.25371	-1.95965	0
293.346	-0.256516	-1.95969	0
293.573	-0.25749	-1.95961	0
293.817	-0.260525	-1.95965	0
293.946	-0.257089	-1.95966	0
294.214	-0.258158	-1.95963	0
294.316	-0.257108	-1.95969	0
294.526	-0.256001	-1.95963	0
294.869	-0.254417	-1.95966	0
295.151	-0.257394	-1.95964	0
295.344	-0.252336	-1.95971	0
295.6	-0.249091	-1.9596	0
295.865	-0.254359	-1.95968	0
295.941	-0.255085	-1.95967	0
296.089	-0.249626	-1.95963	0
296.423	-0.248442	-1.95967	0
296.785	-0.249397	-1.95965	0
297.039	-0.25247	-1.95963	0
297.277	-0.257833	-1.9597	0
297.458	-0.262338	-1.95961	0
297.517	-0.259437	-1.95965	0
297.531	-0.261766	-1.9596	0
297.544	-0.260372	-1.95958	0
297.564	-0.263025	-1.95964	0
297.577	-0.262071	-1.95966	0
297.592	-0.260907	-1.95963	0
297.621	-0.261097	-1.95968	0
297.768	-0.257967	-1.95963	0
297.899	-0.253901	-1.95962	0
298.128	-0.259017	-1.95961	0
298.256	-0.259685	-1.95969	0
298.434	-0.254054	-1.95962	0
298.625	-0.259284	-1.95958	0
298.818	-0.258101	-1.95965	0
299.034	-0.254779	-1.9596	0
299.172	-0.256058	-1.95969	0
299.345	-0.256803	-1.95963	0
299.487	-0.255696	-1.95963	0
299.778	-0.258711	-1.95958	0
299.982	-0.259704	-1.95962	0
300.184	-0.262739	-1.95967	0
300.447	-0.26335	-1.95965	0
300.653	-0.264381	-1.95963	0
300.728	-0.259971	-1.95967	0
300.925	-0.254589	-1.95965	0
301.102	-0.251363	-1.95969	0
301.4	-0.252565	-1.95967	0
301.648	-0.253042	-1.95963	0
302.028	-0.249759	-1.95966	0
302.231	-0.250752	-1.95964	0
302.414	-0.250007	-1.9597	0
302.576	-0.243098	-1.95958	0
302.894	-0.241971	-1.95962	0
303.112	-0.245121	-1.95962	0
303.315	-0.24808	-1.95965	0
303.495	-0.248633	-1.9596	0
303.674	-0.249549	-1.95965	0
303.761	-0.248003	-1.95961	0
303.953	-0.246953	-1.95965	0
304.373	-0.241742	-1.95962	0
304.91	-0.242964	-1.9596	0
305.073	-0.241819	-1.95962	0
305.355	-0.246915	-1.95963	0
305.456	-0.245426	-1.9596	0
305.895	-0.244033	-1.95964	0
306.126	-0.242582	-1.9596	0
306.493	-0.24535	-1.95962	0
306.776	-0.24409	-1.95965	0
307.254	-0.247297	-1.95965	0
307.624	-0.246438	-1.95967	0
307.99	-0.249549	-1.9596	0
308.372	-0.244033	-1.95961	0
308.783	-0.247144	-1.95969	0
309.57	-0.250198	-1.95959	0
309.919	-0.253291	-1.95967	0
310.828	-0.252241	-1.95957	0
311.188	-0.252966	-1.95962	0
311.412	-0.254016	-1.95965	0
311.617	-0.254569	-1.95965	0
311.819	-0.259685	-1.95962	0
312.1	-0.254512	-1.95959	0
312.246	-0.249282	-1.95956	0
312.598	-0.250198	-1.9596	0
312.733	-0.242716	-1.9597	0
312.884	-0.239509	-1.95967	0
313.338	-0.244758	-1.95963	0
313.493	-0.247946	-1.95964	0
313.527	-0.243938	-1.95961	0
313.785	-0.242888	-1.95966	0
313.968	-0.248347	-1.95966	0
314.093	-0.249378	-1.95969	0
314.274	-0.243823	-1.95962	0
314.717	-0.242773	-1.95965	0
315.192	-0.242888	-1.95963	0
315.529	-0.245999	-1.95967	0
315.815	-0.246743	-1.95963	0
316.156	-0.24577	-1.95962	0
316.393	-0.244739	-1.95965	0
316.611	-0.243518	-1.95963	0
316.871	-0.242487	-1.95963	0
317.249	-0.245923	-1.95965	0
317.279	-0.245216	-1.95965	0
317.407	-0.241399	-1.95963	0
317.737	-0.246686	-1.95965	0
318.046	-0.251764	-1.95966	0
318.269	-0.248519	-1.95967	0
318.585	-0.248805	-1.95964	0
318.719	-0.243346	-1.95966	0
319.364	-0.246419	-1.95966	0
319.651	-0.251611	-1.95962	0
319.863	-0.250198	-1.95969	0
320.031	-0.245942	-1.95965	0
320.113	-0.239738	-1.95961	0
320.916	-0.239242	-1.95967	0
321.091	-0.236169	-1.95962	0
321.364	-0.234451	-1.9597	0
321.654	-0.230652	-1.9596	0
322.045	-0.23153	-1.95967	0
322.267	-0.230442	-1.9596	0
322.823	-0.228438	-1.95965	0
323.299	-0.229584	-1.95963	0
323.792	-0.228266	-1.95965	0
324.199	-0.226892	-1.95964	0
324.692	-0.227751	-1.95966	0
325.052	-0.230729	-1.9597	0
325.139	-0.23718	-1.95962	0
325.308	-0.237161	-1.95962	0
325.562	-0.24283	-1.95967	0
325.793	-0.24367	-1.95964	0
326.508	-0.246801	-1.95966	0
326.78	-0.250714	-1.95968	0
327.104	-0.251611	-1.95958	0
327.181	-0.247717	-1.95965	0
327.423	-0.24075	-1.9596	0
328.052	-0.241781	-1.95962	0
328.315	-0.236283	-1.9596	0
328.688	-0.230652	-1.9597	0
329.761	-0.227579	-1.9596	0
330.296	-0.228686	-1.95964	0
330.873	-0.229622	-1.95969	0
331.239	-0.23363	-1.95962	0
331.321	-0.234661	-1.95965	0
331.369	-0.236512	-1.95957	0
331.937	-0.235062	-1.95965	0
332.405	-0.238001	-1.9596	0
333.153	-0.243212	-1.95963	0
333.837	-0.248576	-1.95959	0
334.128	-0.245197	-1.95963	0
334.659	-0.246247	-1.95961	0
334.89	-0.240502	-1.95967	0
335.63	-0.243594	-1.95967	0
335.919	-0.244338	-1.95973	0
336.242	-0.240922	-1.95964	0
336.806	-0.237829	-1.95969	0
337.445	-0.237123	-1.95965	0
337.833	-0.240387	-1.95963	0
337.976	-0.242277	-1.95966	0
338.321	-0.238059	-1.95966	0
338.9	-0.243346	-1.95962	0
339.15	-0.242162	-1.95964	0
339.573	-0.24304	-1.9596	0
339.715	-0.237849	-1.95964	0
340.235	-0.243021	-1.95968	0
340.894	-0.23991	-1.95969	0
341.37	-0.239872	-1.95965	0
341.585	-0.23657	-1.95958	0
341.776	-0.237677	-1.95965	0
342.158	-0.234489	-1.95961	0
342.691	-0.235634	-1.95963	0
343.271	-0.235997	-1.95969	0
343.499	-0.236741	-1.95965	0
343.548	-0.23029	-1.95967	0
344.804	-0.229183	-1.95962	0
345.312	-0.234279	-1.95962	0
345.617	-0.237467	-1.95967	0
345.69	-0.235195	-1.95968	0
345.785	-0.236226	-1.95963	0
345.896	-0.235577	-1.95965	0
345.905	-0.237238	-1.95964	0
345.989	-0.238173	-1.9596	0
346.161	-0.239242	-1.95962	0
346.203	-0.232561	-1.95963	0
346.314	-0.228915	-1.95962	0
346.408	-0.232389	-1.9596	0
346.598	-0.233764	-1.95965	0
346.763	-0.232618	-1.95968	0
346.962	-0.235749	-1.95965	0
347.041	-0.234241	-1.95969	0
347.075	-0.230977	-1.95965	0
347.172	-0.227847	-1.95963	0
347.389	-0.233554	-1.95964	0
347.559	-0.229965	-1.95957	0
347.754	-0.233115	-1.95966	0
347.845	-0.227102	-1.95967	0
347.97	-0.225785	-1.95964	0
348.079	-0.219734	-1.95963	0
348.254	-0.219505	-1.95964	0
348.453	-0.218474	-1.95964	0
348.695	-0.21731	-1.95962	0
348.899	-0.213053	-1.95967	0
349.139	-0.212099	-1.95965	0
349.223	-0.205953	-1.95965	0
349.383	-0.207079	-1.95967	0
349.58	-0.208186	-1.95964	0
349.683	-0.202574	-1.95972	0
349.751	-0.206048	-1.95969	0
349.788	-0.205037	-1.95965	0
349.882	-0.20601	-1.95967	0
349.949	-0.198623	-1.95964	0
350.039	-0.199673	-1.95965	0
350.342	-0.196333	-1.95966	0
350.537	-0.193145	-1.95965	0
350.773	-0.194214	-1.95963	0
350.992	-0.190263	-1.95966	0
351.038	-0.184441	-1.9596	0
351.197	-0.189728	-1.95963	0
351.421	-0.186598	-1.95963	0
351.723	-0.182303	-1.95963	0
351.905	-0.183162	-1.95967	0
351.966	-0.177703	-1.95963	0
352.246	-0.178715	-1.95969	0
352.487	-0.179631	-1.95967	0
352.704	-0.182704	-1.95967	0
352.782	-0.179001	-1.95963	0
353.236	-0.177569	-1.95961	0
353.405	-0.180719	-1.95963	0
353.506	-0.174973	-1.95959	0
353.751	-0.178295	-1.95962	0
354.028	-0.181425	-1.95962	0
354.195	-0.184613	-1.95967	0
354.472	-0.183429	-1.95969	0
354.603	-0.179936	-1.95965	0
354.99	-0.176825	-1.95967	0
355.411	-0.179783	-1.95962	0
355.814	-0.180738	-1.95965	0
356.107	-0.179669	-1.9596	0
356.325	-0.184937	-1.95962	0
356.53	-0.181177	-1.95969	0
356.952	-0.184269	-1.95955	0
357.18	-0.182933	-1.95965	0
357.662	-0.183105	-1.95961	0
357.977	-0.186197	-1.95963	0
358.211	-0.182551	-1.95965	0
358.367	-0.181864	-1.95962	0
358.738	-0.184937	-1.95965	0
359.086	-0.183792	-1.9596	0
359.294	-0.18488	-1.95962	0
359.53	-0.183525	-1.95962	0
360.395	-0.184403	-1.95961	0
360.71	-0.187533	-1.95965	0
361.288	-0.188697	-1.95963	0
361.675	-0.189537	-1.95965	0
361.99	-0.186159	-1.95961	0
362.383	-0.189308	-1.95967	0
362.44	-0.187648	-1.95965	0