File: EXPERIMENTAL/Data/Battery-cycling/JP-measurements/C-cell/2024-04-23_JP-measurements_sample-A7-02_C-cell_Cu-Li-Cellgard2400-separator_25muL-LiFSI-in-DME_outside-glovebox_sigma-0.02_added-OCV-0.1s_04_CP_C10.txt
time/s	Ewe/V	I/mA	error
9519.11	0.00922905	-0.019311	0
9519.11	0.00654654	-0.0194638	0
9519.14	0.0045046	-0.0194956	0
9519.18	0.00244358	-0.0194128	0
9519.21	0.000382558	-0.0194256	0
9519.25	-0.00179296	-0.0194319	0
9519.29	-0.00393032	-0.0194893	0
9519.34	-0.00599134	-0.0194319	0
9519.38	-0.00803327	-0.0194128	0
9519.43	-0.0100752	-0.0194065	0
9519.48	-0.0122126	-0.0194001	0
9519.53	-0.0144453	-0.0194765	0
9519.59	-0.0164873	-0.0194574	0
9519.64	-0.0185483	-0.019451	0
9519.7	-0.0205711	-0.019451	0
9519.76	-0.0226322	-0.0194702	0
9519.82	-0.0247314	-0.0194128	0
9519.88	-0.0268496	-0.019451	0
9519.94	-0.028987	-0.019451	0
9520.01	-0.0310862	-0.0194765	0
9520.08	-0.0331853	-0.0194702	0
9520.15	-0.0352273	-0.0194128	0
9520.22	-0.0373456	-0.0194383	0
9520.3	-0.0394638	-0.0194956	0
9520.38	-0.0414867	-0.0194065	0
9520.46	-0.0435095	-0.0194765	0
9520.54	-0.0455515	-0.0194829	0
9520.62	-0.0475934	-0.0194574	0
9520.71	-0.0496353	-0.0194893	0
9520.8	-0.0517154	-0.019502	0
9520.9	-0.0538528	-0.0194702	0
9521	-0.055952	-0.0194765	0
9521.1	-0.0580512	-0.0195084	0
9521.21	-0.0602076	-0.0194256	0
9521.32	-0.0622686	-0.0194765	0
9521.44	-0.0642915	-0.0194829	0
9521.55	-0.0663525	-0.0194128	0
9521.68	-0.0684135	-0.0194319	0
9521.81	-0.0704364	-0.0194447	0
9521.96	-0.0724974	-0.0194638	0
9522.11	-0.0745775	-0.0194001	0
9522.27	-0.0766194	-0.0194383	0
9522.44	-0.0786423	-0.019502	0
9522.64	-0.0806651	-0.0194893	0
9522.86	-0.0827834	-0.019451	0
9523.12	-0.0848253	-0.0194256	0
9523.47	-0.0868864	-0.0194956	0
9524.56	-0.0868864	-0.0195275	0
9524.9	-0.0848444	-0.0194065	0
9525.15	-0.0828216	-0.0194956	0
9525.38	-0.0807796	-0.0194447	0
9525.59	-0.0786041	-0.0195211	0
9525.79	-0.0765622	-0.0194383	0
9525.99	-0.0745393	-0.0195338	0
9526.21	-0.0724783	-0.0194319	0
9526.42	-0.07036	-0.0193937	0
9526.66	-0.0683372	-0.0195084	0
9526.91	-0.0663143	-0.0194192	0
9527.16	-0.0642533	-0.0194192	0
9527.48	-0.0622305	-0.0194702	0
9527.82	-0.0602076	-0.0194574	0
9528.23	-0.0581275	-0.0194765	0
9528.74	-0.0560856	-0.0194765	0
9529.4	-0.0540436	-0.0193683	0
9530.19	-0.0520017	-0.0194829	0
9531.3	-0.0499598	-0.0194829	0
9532.83	-0.0479369	-0.0194893	0
9535.09	-0.045895	-0.0194574	0
9538.47	-0.043853	-0.0194574	0
9543.76	-0.0418302	-0.0195084	0
9552.51	-0.0398073	-0.0194765	0
9568.01	-0.0377845	-0.019502	0
9588.01	-0.0363914	-0.0194829	0
9608.01	-0.0350746	-0.0194447	0
9628.01	-0.0339869	-0.0194383	0
9648.01	-0.0330327	-0.0194702	0
9668.01	-0.0323266	-0.0194893	0
9688.01	-0.0315251	-0.0194638	0
9708.01	-0.0309717	-0.0195784	0
9728.01	-0.0302465	-0.0195084	0
9748.01	-0.0297885	-0.0195402	0
9768.01	-0.0291015	-0.0194319	0
9788.01	-0.0286435	-0.0195211	0
9808.01	-0.0283381	-0.0195147	0
9828.01	-0.0279183	-0.0194893	0
9848.01	-0.027613	-0.0195084	0
9868.01	-0.0272885	-0.0195147	0
9888.01	-0.0268878	-0.0194447	0
9908.01	-0.0266588	-0.0194638	0
9928.01	-0.0263153	-0.0194574	0
9948.01	-0.0261817	-0.0195084	0
9968.01	-0.0260863	-0.0195211	0
9988.01	-0.0258191	-0.0194702	0
10008	-0.0256283	-0.0194765	0
10028	-0.0254565	-0.0194574	0
10048	-0.0253039	-0.0195084	0
10068	-0.0252084	-0.019451	0
10088	-0.0251321	-0.0194256	0
10108	-0.0249222	-0.0194829	0
10128	-0.0248649	-0.0194702	0
10148	-0.0246932	-0.0194765	0
10168	-0.0245787	-0.0194702	0
10188	-0.0244642	-0.0194956	0
10208	-0.0243878	-0.0195147	0
10228	-0.0243115	-0.0194256	0
10248	-0.0242161	-0.0194447	0
10268	-0.0240825	-0.0195084	0
10288	-0.0240825	-0.0194893	0
10308	-0.0239108	-0.0194765	0
10328	-0.0238726	-0.0195338	0
10348	-0.0239108	-0.019451	0
10368	-0.0238153	-0.0194893	0
10388	-0.0236818	-0.0195275	0
10408	-0.0237199	-0.0194638	0
10428	-0.0235482	-0.0194956	0
10448	-0.0235482	-0.0195147	0
10468	-0.0234528	-0.0194765	0
10488	-0.023281	-0.0195147	0
10508	-0.0231856	-0.0194574	0
10528	-0.0233001	-0.0194893	0
10548	-0.0232047	-0.0195084	0
10568	-0.0231665	-0.0195147	0
10588	-0.0231283	-0.0194702	0
10608	-0.0229566	-0.0195529	0
10628	-0.0230138	-0.0194638	0
10648	-0.0228993	-0.0194702	0
10668	-0.0228039	-0.0194574	0
10688	-0.0227467	-0.0194956	0
10708	-0.0225749	-0.0194829	0
10728	-0.0226703	-0.019451	0
10748	-0.0226512	-0.0194574	0
10768	-0.0226894	-0.0195147	0
10788	-0.022594	-0.0194956	0
10808	-0.0225177	-0.0194638	0
10828	-0.0224032	-0.0194638	0
10848	-0.0223268	-0.0194829	0
10868	-0.0223077	-0.019502	0
10888	-0.0224032	-0.0195466	0
10908	-0.0222123	-0.0195466	0
10928	-0.0222314	-0.019502	0
10948	-0.0222696	-0.0194765	0
10968	-0.022136	-0.0194829	0
10988	-0.0221169	-0.0194956	0
11008	-0.022136	-0.0194829	0
11028	-0.0221169	-0.0194128	0
11048	-0.0220978	-0.0194893	0
11068	-0.0220597	-0.0194765	0
11088	-0.0220406	-0.0194893	0
11108	-0.0220787	-0.0194829	0
11128	-0.0219261	-0.0194893	0
11148	-0.0219833	-0.0194893	0
11168	-0.021907	-0.0195466	0
11188	-0.0218307	-0.0194319	0
11208	-0.0217925	-0.0194574	0
11228	-0.0217352	-0.0195147	0
11248	-0.0217543	-0.0194765	0
11268	-0.0217162	-0.0195466	0
11288	-0.0217352	-0.0194956	0
11308	-0.0216017	-0.0194574	0
11328	-0.0216589	-0.0195147	0
11348	-0.0216207	-0.0195211	0
11368	-0.0215635	-0.0194956	0
11388	-0.0216017	-0.0195084	0
11408	-0.0213727	-0.019451	0
11428	-0.0215826	-0.0195147	0
11448	-0.0215253	-0.0194765	0
11468	-0.0215826	-0.0195529	0
11488	-0.0215444	-0.0195084	0
11508	-0.0214299	-0.0194638	0
11528	-0.0215635	-0.0195084	0
11548	-0.0212963	-0.0194574	0
11568	-0.0213536	-0.019572	0
11588	-0.0213536	-0.019502	0
11608	-0.0213154	-0.0195147	0
11628	-0.0213154	-0.0194829	0
11648	-0.0213727	-0.0194638	0
11668	-0.02122	-0.0194893	0
11688	-0.0211818	-0.0195211	0
11708	-0.0212772	-0.0194765	0
11728	-0.0211246	-0.0194893	0
11748	-0.0211436	-0.0195338	0
11768	-0.02122	-0.0194765	0
11788	-0.0210482	-0.0194956	0
11808	-0.0211627	-0.0194956	0
11828	-0.0211246	-0.0194893	0
11848	-0.0211055	-0.0195211	0
11868	-0.0210482	-0.019451	0
11888	-0.0210291	-0.0193937	0
11908	-0.0210673	-0.0194956	0
11928	-0.0210864	-0.0195084	0
11948	-0.0209528	-0.0194765	0
11968	-0.0210482	-0.0194319	0
11988	-0.0210673	-0.0194829	0
12008	-0.0209528	-0.0195275	0
12028	-0.0208956	-0.0195402	0
12048	-0.0208956	-0.0194638	0
12068	-0.0209528	-0.0195275	0
12088	-0.020762	-0.0195402	0
12108	-0.0207429	-0.0194956	0
12128	-0.0208001	-0.019572	0
12148	-0.0208574	-0.0194829	0
12168	-0.0209337	-0.019502	0
12188	-0.0208001	-0.0194447	0
12208	-0.0208001	-0.0195593	0
12228	-0.0209146	-0.0195338	0
12248	-0.0207238	-0.0194702	0
12268	-0.0206666	-0.0195466	0
12288	-0.0206666	-0.0195466	0
12308	-0.0207238	-0.0194829	0
12328	-0.0205902	-0.0194065	0
12348	-0.0206666	-0.0194702	0
12368	-0.0206666	-0.0194956	0
12388	-0.0205902	-0.0194574	0
12408	-0.0205521	-0.0194893	0
12428	-0.0206856	-0.0194447	0
12448	-0.0206284	-0.0195529	0
12468	-0.0204757	-0.0195084	0
12488	-0.0205521	-0.0194893	0
12508	-0.0204948	-0.0193937	0
12528	-0.0205711	-0.0194956	0
12548	-0.0205521	-0.0195466	0
12568	-0.0204757	-0.0194956	0
12588	-0.0203612	-0.0194765	0
12608	-0.020533	-0.019451	0
12628	-0.0203421	-0.0195466	0
12648	-0.0203612	-0.0195147	0
12668	-0.0203994	-0.0195657	0
12688	-0.0204948	-0.0195084	0
12708	-0.0203803	-0.0194574	0
12728	-0.0203231	-0.0195211	0
12748	-0.0203231	-0.0194256	0
12768	-0.0203994	-0.0195275	0
12788	-0.020304	-0.0194574	0
12808	-0.0203612	-0.0195275	0
12828	-0.0203803	-0.0194956	0
12848	-0.0203612	-0.0194383	0
12868	-0.0203231	-0.019502	0
12888	-0.0202849	-0.0194702	0
12908	-0.0203231	-0.0194893	0
12928	-0.0202467	-0.0195211	0
12948	-0.0202086	-0.0195657	0
12968	-0.0201895	-0.0194829	0
12988	-0.0201513	-0.0195402	0
13008	-0.0202849	-0.0195084	0
13028	-0.0201322	-0.0194702	0
13048	-0.0200941	-0.0194956	0
13068	-0.0201131	-0.0194893	0
13088	-0.0201704	-0.0194956	0
13108	-0.0201131	-0.0194829	0
13128	-0.020075	-0.0194893	0
13148	-0.0200177	-0.0195338	0
13168	-0.020075	-0.0194702	0
13188	-0.0200559	-0.0194702	0
13208	-0.0201513	-0.0194829	0
13228	-0.020075	-0.0195338	0
13248	-0.0199414	-0.0194447	0
13268	-0.019846	-0.0195275	0
13288	-0.0200368	-0.0194447	0
13308	-0.0200368	-0.0195275	0
13328	-0.0199223	-0.0194829	0
13348	-0.0199796	-0.0195593	0
13368	-0.0199986	-0.0195466	0
13388	-0.0198651	-0.0195211	0
13408	-0.019846	-0.0194956	0
13428	-0.0198651	-0.019502	0
13448	-0.0197887	-0.0195593	0
13468	-0.0199032	-0.0194893	0
13488	-0.0199796	-0.0195402	0
13508	-0.019846	-0.0194256	0
13528	-0.0200177	-0.0195084	0
13548	-0.0197506	-0.0194765	0
13568	-0.0197506	-0.019502	0
13588	-0.0197315	-0.0195084	0
13608	-0.0197887	-0.0195211	0
13628	-0.0197124	-0.0194829	0
13648	-0.0198269	-0.0195275	0
13668	-0.0196551	-0.0195402	0
13688	-0.0197696	-0.0195211	0
13708	-0.0195979	-0.019502	0
13728	-0.0197315	-0.0194765	0
13748	-0.0197506	-0.019451	0
13768	-0.0197696	-0.0194447	0
13788	-0.0198078	-0.0194765	0
13808	-0.0197696	-0.0194765	0
13828	-0.0197506	-0.0194893	0
13848	-0.0196742	-0.0194256	0
13868	-0.0197315	-0.019502	0
13888	-0.0196742	-0.019502	0
13908	-0.0196361	-0.0195147	0
13928	-0.0197506	-0.019502	0
13948	-0.0196933	-0.0195338	0
13968	-0.0195979	-0.0195211	0
13988	-0.0196361	-0.0195402	0
14008	-0.0195597	-0.0194447	0
14028	-0.0196933	-0.0195529	0
14048	-0.0195979	-0.0195275	0
14068	-0.0195979	-0.0195084	0
14088	-0.0196361	-0.019502	0
14108	-0.0196361	-0.0194829	0
14128	-0.0195597	-0.0195147	0
14148	-0.0196361	-0.019451	0
14168	-0.0195025	-0.0194447	0
14188	-0.019617	-0.0194638	0
14208	-0.0196551	-0.0195275	0
14228	-0.0194452	-0.0194638	0
14248	-0.0194452	-0.0195466	0
14268	-0.0194643	-0.0194638	0
14288	-0.0195406	-0.0194638	0
14308	-0.0194643	-0.0195084	0
14328	-0.0194452	-0.0194956	0
14348	-0.0194834	-0.0194956	0
14368	-0.0193689	-0.0194319	0
14388	-0.0195025	-0.0194765	0
14408	-0.019407	-0.0194893	0
14428	-0.0193689	-0.0194702	0
14448	-0.0194643	-0.0194383	0
14468	-0.0194261	-0.019502	0
14488	-0.0193689	-0.0194702	0
14508	-0.019407	-0.0194702	0
14528	-0.0193116	-0.0194765	0
14548	-0.0193689	-0.0194956	0
14568	-0.0192544	-0.0193937	0
14588	-0.0193689	-0.0195084	0
14608	-0.0193498	-0.0195147	0
14628	-0.0192544	-0.0195338	0
14648	-0.019388	-0.0194829	0
14668	-0.0194452	-0.0194956	0
14688	-0.0192925	-0.0194956	0
14708	-0.0193689	-0.0194893	0
14728	-0.0192353	-0.0194638	0
14748	-0.0193307	-0.0194829	0
14768	-0.0192353	-0.0194765	0
14788	-0.0192735	-0.0194893	0
14808	-0.0192162	-0.0194956	0
14828	-0.0193689	-0.0195275	0
14848	-0.0193498	-0.0195147	0
14868	-0.0193307	-0.0195084	0
14888	-0.0192735	-0.0194702	0
14908	-0.0192735	-0.0194956	0
14928	-0.0192353	-0.0195147	0
14948	-0.0191971	-0.0195275	0
14968	-0.019388	-0.019451	0
14988	-0.019178	-0.019502	0
15008	-0.0192353	-0.0195529	0
15028	-0.0192353	-0.0195275	0
15048	-0.0192735	-0.0193937	0
15068	-0.0191208	-0.0194702	0
15088	-0.0191208	-0.0194447	0
15108	-0.019178	-0.0194956	0
15128	-0.0191399	-0.019502	0
15148	-0.0191971	-0.0194574	0
15168	-0.019159	-0.0194893	0
15188	-0.0192162	-0.0194128	0
15208	-0.0191208	-0.0194765	0
15228	-0.0191971	-0.0194893	0
15248	-0.0192353	-0.0194956	0
15268	-0.019178	-0.0195338	0
15288	-0.019178	-0.0194065	0
15308	-0.0191017	-0.0194702	0
15328	-0.0191208	-0.0194638	0
15348	-0.0190635	-0.0195529	0
15368	-0.019178	-0.0195084	0
15388	-0.0191017	-0.0193937	0
15408	-0.0190826	-0.019451	0
15428	-0.0191017	-0.0194638	0
15448	-0.0190826	-0.0194893	0
15468	-0.0191971	-0.0194956	0
15488	-0.0190063	-0.0195084	0
15508	-0.0191017	-0.0194319	0
15528	-0.0190445	-0.0194574	0
15548	-0.0191208	-0.0194256	0
15568	-0.019178	-0.0194638	0
15588	-0.0191017	-0.0195657	0
15608	-0.0190826	-0.0195529	0
15628	-0.0190826	-0.0194574	0
15648	-0.0190445	-0.019451	0
15668	-0.0190063	-0.0194702	0
15688	-0.0190826	-0.0195338	0
15708	-0.0190063	-0.0194829	0
15728	-0.0189872	-0.0194829	0
15748	-0.0190254	-0.0194638	0
15768	-0.0190063	-0.0194956	0
15788	-0.0191971	-0.0195593	0
15808	-0.018949	-0.0195211	0
15828	-0.0189681	-0.0195084	0
15848	-0.0190826	-0.0194829	0
15868	-0.0191017	-0.019572	0
15888	-0.0190445	-0.019572	0
15908	-0.0190635	-0.0194956	0
15928	-0.0189681	-0.0194893	0
15948	-0.0189681	-0.0194574	0
15968	-0.0190254	-0.0194829	0
15988	-0.0190445	-0.0195593	0
16008	-0.0190635	-0.0195402	0
16028	-0.018949	-0.0195275	0
16048	-0.01893	-0.0194383	0
16068	-0.0190445	-0.0194893	0
16088	-0.0189681	-0.0194702	0
16108	-0.0190254	-0.0194829	0
16128	-0.0189109	-0.0195275	0
16148	-0.0189872	-0.0194128	0
16168	-0.0190445	-0.0194256	0
16188	-0.018949	-0.0194829	0
16208	-0.0190063	-0.0195466	0
16228	-0.0189872	-0.019502	0
16248	-0.0189109	-0.0195211	0
16268	-0.0188918	-0.0195338	0
16288	-0.0190445	-0.0194256	0
16308	-0.0189681	-0.0194319	0
16328	-0.0190635	-0.0195338	0
16348	-0.0189872	-0.0195338	0
16368	-0.0189872	-0.0194829	0
16388	-0.0190254	-0.0195529	0
16408	-0.0189109	-0.0194702	0
16428	-0.018949	-0.0194956	0
16448	-0.01893	-0.0194574	0
16468	-0.0189109	-0.019502	0
16488	-0.018949	-0.0195529	0
16508	-0.0188345	-0.019451	0
16528	-0.0189872	-0.0194956	0
16548	-0.01893	-0.0194319	0
16568	-0.0189109	-0.0195147	0
16588	-0.0188727	-0.0194702	0
16608	-0.018949	-0.0195784	0
16628	-0.0189872	-0.0195593	0
16648	-0.018949	-0.0195211	0
16668	-0.0190254	-0.0194447	0
16688	-0.0188727	-0.0195466	0
16708	-0.0189109	-0.0195338	0
16728	-0.0189109	-0.0194702	0
16748	-0.01893	-0.0194574	0
16768	-0.0189872	-0.0194956	0
16788	-0.0189872	-0.0194765	0
16808	-0.0189109	-0.0194829	0
16828	-0.0188918	-0.0195657	0
16848	-0.0188536	-0.0195275	0
16868	-0.018949	-0.0194383	0
16888	-0.0188345	-0.0195147	0
16908	-0.0188345	-0.0194702	0
16928	-0.0186437	-0.0195147	0
16948	-0.0188155	-0.019502	0
16968	-0.0187582	-0.0194956	0
16988	-0.0187582	-0.019502	0
17008	-0.0187964	-0.0195211	0
17028	-0.0188345	-0.0194256	0
17048	-0.0188536	-0.0194702	0
17068	-0.0187582	-0.0195084	0
17088	-0.0187391	-0.0195147	0
17108	-0.0188345	-0.0195147	0
17128	-0.0188918	-0.0194447	0
17148	-0.018701	-0.0195338	0
17168	-0.0187964	-0.0194956	0
17188	-0.0188345	-0.0194319	0
17208	-0.0188918	-0.0194638	0
17228	-0.0187773	-0.0195529	0
17248	-0.0187773	-0.0195529	0
17268	-0.0189109	-0.0194956	0
17288	-0.0188727	-0.0194574	0
17308	-0.0187582	-0.0194893	0
17328	-0.018701	-0.0195784	0
17348	-0.018701	-0.019502	0
17368	-0.0188155	-0.0194893	0
17388	-0.0187391	-0.019502	0
17408	-0.018701	-0.0195084	0
17428	-0.0187391	-0.0194447	0
17448	-0.0188727	-0.0195147	0
17468	-0.0188727	-0.0194893	0
17488	-0.0186819	-0.019451	0
17508	-0.0187582	-0.0194765	0
17528	-0.0186437	-0.0194956	0
17548	-0.018701	-0.0195402	0
17568	-0.0187773	-0.0194829	0
17588	-0.0188155	-0.0194192	0
17608	-0.01872	-0.0195211	0
17628	-0.0187391	-0.0195529	0
17648	-0.0187582	-0.0195466	0
17668	-0.0188155	-0.0195275	0
17688	-0.018701	-0.0195147	0
17708	-0.0187773	-0.019502	0
17728	-0.0187391	-0.0194765	0
17748	-0.018701	-0.0194638	0
17768	-0.01872	-0.0194638	0
17788	-0.0187773	-0.0195275	0
17808	-0.0187391	-0.0194702	0
17828	-0.0187582	-0.0194893	0
17848	-0.0186437	-0.0194638	0
17868	-0.0188155	-0.019502	0
17888	-0.0186437	-0.0194765	0
17908	-0.0186819	-0.0194638	0
17928	-0.0187964	-0.0195084	0
17948	-0.018701	-0.0194638	0
17968	-0.0187582	-0.0195466	0
17988	-0.0186437	-0.0194829	0
18008	-0.0186819	-0.0195147	0
18028	-0.0187773	-0.0195147	0
18048	-0.0186437	-0.0194956	0
18068	-0.0187391	-0.0194574	0
18088	-0.01872	-0.0194702	0
18108	-0.0188345	-0.0194829	0
18128	-0.018701	-0.0194128	0
18148	-0.0186628	-0.0194447	0
18168	-0.0186246	-0.0195211	0
18188	-0.0186819	-0.0195338	0
18208	-0.0186819	-0.0194638	0
18228	-0.01872	-0.0195211	0
18248	-0.0186628	-0.0194893	0
18268	-0.0186819	-0.019451	0
18288	-0.0187391	-0.0194893	0
18308	-0.0186246	-0.0195211	0
18328	-0.0186437	-0.0195147	0
18348	-0.0186246	-0.0195084	0
18368	-0.0185674	-0.0194829	0
18388	-0.0185674	-0.0195275	0
18408	-0.0186055	-0.0195402	0
18428	-0.0186819	-0.0194893	0
18448	-0.0186055	-0.019572	0
18468	-0.0186437	-0.0194829	0
18488	-0.0186246	-0.0194956	0
18508	-0.01872	-0.0194765	0
18528	-0.0186055	-0.0194956	0
18548	-0.0186055	-0.0195211	0
18568	-0.0186628	-0.0194638	0
18588	-0.0186055	-0.0195084	0
18608	-0.0185865	-0.0194893	0
18628	-0.0186437	-0.0194956	0
18648	-0.0185483	-0.0195338	0
18668	-0.0185865	-0.0195211	0
18688	-0.01872	-0.0194447	0
18708	-0.0186819	-0.0195275	0
18728	-0.0186437	-0.0194829	0
18748	-0.0185865	-0.0195784	0
18768	-0.0186055	-0.019572	0
18788	-0.0185292	-0.0195275	0
18808	-0.0185674	-0.0194829	0
18828	-0.0186819	-0.0194256	0
18848	-0.0185865	-0.0194256	0
18868	-0.0185292	-0.0195084	0
18888	-0.0186055	-0.0194638	0
18908	-0.0185483	-0.019502	0
18928	-0.0185674	-0.0195466	0
18948	-0.0186628	-0.0195084	0
18968	-0.0186246	-0.0195275	0
18988	-0.018472	-0.0194893	0
19008	-0.0185865	-0.0194893	0
19028	-0.0185674	-0.0194893	0
19048	-0.0185674	-0.0195084	0
19068	-0.0185674	-0.0195147	0
19088	-0.018472	-0.0195402	0
19108	-0.0185674	-0.0195147	0
19128	-0.018472	-0.0195084	0
19148	-0.0185101	-0.0194128	0
19168	-0.0186055	-0.0195657	0
19188	-0.0185674	-0.0194956	0
19208	-0.0187773	-0.0194829	0
19228	-0.0185865	-0.0195211	0
19248	-0.018472	-0.0195084	0
19268	-0.018491	-0.0195084	0
19288	-0.0185483	-0.019502	0
19308	-0.018472	-0.0194956	0
19328	-0.0185101	-0.0195529	0
19348	-0.0185101	-0.019451	0
19368	-0.0183765	-0.0194956	0
19388	-0.018472	-0.0194829	0
19408	-0.018472	-0.0195211	0
19428	-0.0185292	-0.0195275	0
19448	-0.0185292	-0.0195466	0
19468	-0.0185292	-0.019451	0
19488	-0.018472	-0.0194956	0
19508	-0.0185292	-0.0194192	0
19528	-0.0185101	-0.019502	0
19548	-0.0185292	-0.0195338	0
19568	-0.018491	-0.0194893	0
19588	-0.0185101	-0.0194956	0
19608	-0.018491	-0.019502	0
19628	-0.0184529	-0.0195275	0
19648	-0.0184338	-0.0195147	0
19668	-0.0184338	-0.0194829	0
19688	-0.0184529	-0.0194765	0
19708	-0.018491	-0.0195529	0
19728	-0.018491	-0.0195402	0
19748	-0.0184338	-0.0194829	0
19768	-0.0183956	-0.019502	0
19788	-0.0183956	-0.0194765	0
19808	-0.0185674	-0.0194638	0
19828	-0.0183384	-0.0194702	0
19848	-0.0183765	-0.0194702	0
19868	-0.0184147	-0.0194383	0
19888	-0.018472	-0.0194702	0
19908	-0.0183384	-0.0195338	0
19928	-0.0183765	-0.0195657	0
19948	-0.0183575	-0.0194765	0
19968	-0.0183765	-0.0194256	0
19988	-0.0184529	-0.0194319	0
20008	-0.0184147	-0.0194702	0
20028	-0.0183384	-0.0194893	0
20048	-0.0183193	-0.0195402	0
20068	-0.0183575	-0.0194638	0
20088	-0.0183193	-0.0194765	0
20108	-0.0182811	-0.0195147	0
20128	-0.0182811	-0.0194893	0
20148	-0.0183956	-0.0194383	0
20168	-0.0184338	-0.0195084	0
20188	-0.0183956	-0.0194447	0
20208	-0.0184338	-0.0194702	0
20228	-0.0183956	-0.0195084	0
20248	-0.0182811	-0.0195084	0
20268	-0.0183384	-0.0194893	0
20288	-0.018262	-0.0194638	0
20308	-0.0182811	-0.019502	0
20328	-0.0183193	-0.019502	0
20348	-0.0183765	-0.0195784	0
20368	-0.0184147	-0.0194829	0
20388	-0.0181475	-0.0195084	0
20408	-0.0181666	-0.0195529	0
20428	-0.0183002	-0.0194638	0
20448	-0.0183384	-0.0194702	0
20468	-0.018243	-0.0195084	0
20488	-0.0183002	-0.019451	0
20508	-0.018243	-0.0194893	0
20528	-0.0183193	-0.0195593	0
20548	-0.0181475	-0.0194956	0
20568	-0.0183384	-0.019502	0
20588	-0.0183575	-0.0195147	0
20608	-0.018262	-0.0194956	0
20628	-0.0183002	-0.0194829	0
20648	-0.018262	-0.019502	0
20668	-0.0183193	-0.0195147	0
20688	-0.0182811	-0.0194956	0
20708	-0.0182048	-0.0195784	0
20728	-0.0183002	-0.0194702	0
20748	-0.018243	-0.0195275	0
20768	-0.0183002	-0.0194893	0
20788	-0.0182239	-0.0195275	0
20808	-0.0182048	-0.0194319	0
20828	-0.0181666	-0.019451	0
20848	-0.0182239	-0.0195466	0
20868	-0.0181666	-0.0195147	0
20888	-0.0182048	-0.0195466	0
20908	-0.0182239	-0.0195275	0
20928	-0.0182239	-0.0195529	0
20948	-0.0181666	-0.0194574	0
20968	-0.0181094	-0.0194893	0
20988	-0.0182048	-0.0195338	0
21008	-0.018262	-0.0194829	0
21028	-0.0181666	-0.0195147	0
21048	-0.0182239	-0.0195338	0
21068	-0.0181857	-0.0195147	0
21088	-0.0182048	-0.019502	0
21108	-0.0181666	-0.0195275	0
21128	-0.0181857	-0.0194893	0
21148	-0.0180903	-0.0194956	0
21168	-0.018262	-0.0194638	0
21188	-0.0181666	-0.0194956	0
21208	-0.0181285	-0.0194256	0
21228	-0.0181857	-0.019451	0
21248	-0.0182048	-0.0194956	0
21268	-0.018014	-0.0194638	0
21288	-0.0181475	-0.0194829	0
21308	-0.018243	-0.019572	0
21328	-0.018262	-0.019451	0
21348	-0.0181857	-0.0194829	0
21368	-0.0181475	-0.0195529	0
21388	-0.0180712	-0.0194702	0
21408	-0.0181475	-0.0194893	0
21428	-0.0181666	-0.0194956	0
21448	-0.0181285	-0.0194447	0
21468	-0.0181094	-0.0194829	0
21488	-0.0181285	-0.0195338	0
21508	-0.0181285	-0.0195084	0
21528	-0.0180521	-0.0195402	0
21548	-0.0180521	-0.019502	0
21568	-0.0180903	-0.0194638	0
21588	-0.0181285	-0.0194383	0
21608	-0.0181475	-0.0194956	0
21628	-0.0181666	-0.0195275	0
21648	-0.0181475	-0.0194765	0
21668	-0.0181094	-0.0195084	0
21688	-0.0180712	-0.0195466	0
21708	-0.0179949	-0.0195466	0
21728	-0.0181475	-0.0195402	0
21748	-0.0180903	-0.0195275	0
21768	-0.0181475	-0.0194829	0
21788	-0.018033	-0.019502	0
21808	-0.018014	-0.0194893	0
21828	-0.0181094	-0.0194956	0
21848	-0.0181666	-0.0195147	0
21868	-0.0180521	-0.0195147	0
21888	-0.0180903	-0.0194893	0
21908	-0.018033	-0.0195084	0
21928	-0.018014	-0.0193874	0
21948	-0.0181857	-0.0195466	0
21968	-0.0181857	-0.019502	0
21988	-0.0180712	-0.0195402	0
22008	-0.0181094	-0.0194383	0
22028	-0.0181475	-0.0194319	0
22048	-0.0181094	-0.0194829	0
22068	-0.0181475	-0.0195338	0
22088	-0.0179949	-0.0195529	0
22108	-0.0180712	-0.0194893	0
22128	-0.0181094	-0.0194893	0
22148	-0.0180712	-0.0194447	0
22168	-0.0180712	-0.0194893	0
22188	-0.018033	-0.0194829	0
22208	-0.018033	-0.0195275	0
22228	-0.0179949	-0.0195402	0
22248	-0.0180903	-0.0195147	0
22268	-0.018014	-0.0194765	0
22288	-0.0180521	-0.0194893	0
22308	-0.0179376	-0.019502	0
22328	-0.018033	-0.0194765	0
22348	-0.0179949	-0.019502	0
22368	-0.0179758	-0.0195529	0
22388	-0.0180712	-0.0195147	0
22408	-0.0178995	-0.0194956	0
22428	-0.018033	-0.0194829	0
22448	-0.0178995	-0.0194574	0
22468	-0.0179758	-0.0194702	0
22488	-0.0180712	-0.0195084	0
22508	-0.0179567	-0.0194893	0
22528	-0.0180712	-0.0194893	0
22548	-0.0179758	-0.0194638	0
22568	-0.0178804	-0.0194893	0
22588	-0.018014	-0.0194765	0
22608	-0.0179949	-0.0195338	0
22628	-0.0179376	-0.0194765	0
22648	-0.0179567	-0.0195338	0
22668	-0.0180521	-0.0195338	0
22688	-0.018033	-0.0195147	0
22708	-0.018033	-0.019502	0
22728	-0.0180521	-0.019572	0
22748	-0.0179376	-0.0194574	0
22768	-0.0179567	-0.0195084	0
22788	-0.0179376	-0.0194256	0
22808	-0.0180521	-0.0195275	0
22828	-0.018014	-0.0194702	0
22848	-0.0179185	-0.019502	0
22868	-0.0178995	-0.0195084	0
22888	-0.018033	-0.0194829	0
22908	-0.018014	-0.0193937	0
22928	-0.0179376	-0.0194638	0
22948	-0.0179185	-0.0195466	0
22968	-0.0178995	-0.0194829	0
22988	-0.018014	-0.0194447	0
23008	-0.0179567	-0.019572	0
23028	-0.0180521	-0.0195338	0
23048	-0.018033	-0.0195338	0
23068	-0.0179758	-0.0194765	0
23088	-0.0178804	-0.0195402	0
23108	-0.0180521	-0.0194893	0
23128	-0.0179949	-0.0194765	0
23148	-0.0180521	-0.0194574	0
23168	-0.018014	-0.0194765	0
23188	-0.0179376	-0.0194638	0
23208	-0.018033	-0.019502	0
23228	-0.018014	-0.0194893	0
23248	-0.0180521	-0.0195147	0
23268	-0.0180903	-0.0194829	0
23288	-0.018033	-0.0195211	0
23308	-0.0178995	-0.0195211	0
23328	-0.0179376	-0.0194765	0
23348	-0.018014	-0.0194893	0
23368	-0.0179376	-0.0194383	0
23388	-0.0179949	-0.0195402	0
23408	-0.0179758	-0.0194893	0
23428	-0.0179376	-0.0195211	0
23448	-0.018014	-0.0195593	0
23468	-0.0179185	-0.0194702	0
23488	-0.0179185	-0.0194702	0
23508	-0.0181666	-0.0195402	0
23528	-0.0180521	-0.0195084	0
23548	-0.0179949	-0.0194893	0
23568	-0.018014	-0.0195529	0
23588	-0.0179376	-0.0195147	0
23608	-0.0179758	-0.0194893	0
23628	-0.0179567	-0.0194192	0
23648	-0.0179758	-0.0194765	0
23668	-0.0179376	-0.0195529	0
23688	-0.0179376	-0.019502	0
23708	-0.0179185	-0.019451	0
23728	-0.0178995	-0.0195784	0
23748	-0.0178613	-0.0195084	0
23768	-0.0179949	-0.0195529	0
23788	-0.0179567	-0.0194065	0
23808	-0.017804	-0.019502	0
23828	-0.0179758	-0.0194956	0
23848	-0.0178613	-0.0194829	0
23868	-0.0179567	-0.0195466	0
23888	-0.0179185	-0.0194956	0
23908	-0.0179185	-0.0195338	0
23928	-0.0180903	-0.0195084	0
23948	-0.0179758	-0.0195211	0
23968	-0.0179949	-0.0194893	0
23988	-0.0179567	-0.0194956	0
24008	-0.0178804	-0.0194447	0
24028	-0.0180521	-0.0195402	0
24048	-0.0179185	-0.0195084	0
24068	-0.0179376	-0.0196102	0
24088	-0.0179949	-0.0195147	0
24108	-0.0178613	-0.0195275	0
24128	-0.0178231	-0.019381	0
24148	-0.0178995	-0.0195211	0
24168	-0.0178995	-0.0194893	0
24188	-0.0179185	-0.0194638	0
24208	-0.0179376	-0.0194765	0
24228	-0.0179758	-0.0194829	0
24248	-0.0179949	-0.0195275	0
24268	-0.0179567	-0.0194829	0
24288	-0.0179185	-0.0195211	0
24308	-0.0179758	-0.0195084	0
24328	-0.0178995	-0.0194765	0
24348	-0.0179185	-0.0194447	0
24368	-0.0180521	-0.0194829	0
24388	-0.0178995	-0.0195147	0
24408	-0.0178613	-0.0195084	0
24428	-0.0179567	-0.0194956	0
24448	-0.0179185	-0.0195529	0
24468	-0.0179758	-0.0195657	0
24488	-0.0180521	-0.019502	0
24508	-0.0178422	-0.0195084	0
24528	-0.0179567	-0.0194256	0
24548	-0.0178422	-0.0194893	0
24568	-0.0178995	-0.0194829	0
24588	-0.0178231	-0.0195147	0
24608	-0.0178231	-0.019502	0
24628	-0.0179567	-0.0195338	0
24648	-0.0177849	-0.0194829	0
24668	-0.0179376	-0.0194702	0
24688	-0.0178613	-0.0194893	0
24708	-0.0177849	-0.0194192	0
24728	-0.017804	-0.0195147	0
24748	-0.0178613	-0.0194893	0
24768	-0.0179567	-0.0195275	0
24788	-0.0178995	-0.0194956	0
24808	-0.0179949	-0.0194447	0
24828	-0.0179758	-0.0194956	0
24848	-0.0178422	-0.0194702	0
24868	-0.0179185	-0.0195466	0
24888	-0.0178613	-0.0195147	0
24908	-0.0179185	-0.019502	0
24928	-0.0178231	-0.019502	0
24948	-0.0179185	-0.0194829	0
24968	-0.0178613	-0.0194638	0
24988	-0.0179949	-0.0194829	0
25008	-0.0178804	-0.0194829	0
25028	-0.0177468	-0.0194447	0
25048	-0.017804	-0.019451	0
25068	-0.0179567	-0.0194893	0
25088	-0.0179376	-0.0195084	0
25108	-0.0178613	-0.0194447	0
25128	-0.017804	-0.0194829	0
25148	-0.0179376	-0.0195084	0
25168	-0.0178995	-0.0195338	0
25188	-0.017804	-0.0194956	0
25208	-0.017804	-0.0195275	0
25228	-0.0177849	-0.0195338	0
25248	-0.0177277	-0.0195975	0
25268	-0.0177659	-0.0194638	0
25288	-0.0178995	-0.0194765	0
25308	-0.017804	-0.0194765	0
25328	-0.0179376	-0.0194574	0
25348	-0.0177849	-0.019502	0
25368	-0.0178804	-0.0195338	0
25388	-0.0177468	-0.0194893	0
25408	-0.0177659	-0.0195402	0
25428	-0.0176895	-0.019451	0
25448	-0.0178231	-0.0194702	0
25468	-0.0178231	-0.0195147	0
25488	-0.0179567	-0.0195147	0
25508	-0.0177468	-0.0194447	0
25528	-0.0176704	-0.0194574	0
25548	-0.0177468	-0.0194702	0
25568	-0.0176895	-0.019502	0
25588	-0.0177849	-0.0194893	0
25608	-0.0179376	-0.0195147	0
25628	-0.0179185	-0.0195147	0
25648	-0.0177849	-0.0194574	0
25668	-0.0178995	-0.0194829	0
25688	-0.0178231	-0.0194574	0
25708	-0.0177468	-0.019502	0
25728	-0.0177849	-0.0194765	0
25748	-0.0178422	-0.0194447	0
25768	-0.017804	-0.019502	0
25788	-0.0176895	-0.0195338	0
25808	-0.0177277	-0.0194638	0
25828	-0.0177277	-0.0194893	0
25848	-0.017804	-0.0194702	0
25868	-0.0177086	-0.0194702	0
25888	-0.0178422	-0.0194638	0
25908	-0.0177659	-0.0195466	0
25928	-0.0177849	-0.0195275	0
25948	-0.0178231	-0.0194829	0
25968	-0.0177849	-0.0195402	0
25988	-0.0177468	-0.0195402	0
26008	-0.0178613	-0.0195275	0
26028	-0.0177086	-0.019572	0
26048	-0.0177849	-0.0194574	0
26068	-0.017804	-0.0195402	0
26088	-0.0176704	-0.0195275	0
26108	-0.017804	-0.0195338	0
26128	-0.0177277	-0.0194702	0
26148	-0.0178613	-0.0194956	0
26168	-0.0177659	-0.0193874	0
26188	-0.0177468	-0.0195338	0
26208	-0.0177849	-0.0194574	0
26228	-0.017804	-0.0194893	0
26248	-0.0176704	-0.0195147	0
26268	-0.0176704	-0.0194956	0
26288	-0.0177468	-0.0194765	0
26308	-0.0177468	-0.0194893	0
26328	-0.0177086	-0.0194765	0
26348	-0.0178422	-0.0194765	0
26368	-0.0177849	-0.0194128	0
26388	-0.0177277	-0.0194765	0
26408	-0.0177277	-0.0195275	0
26428	-0.0178422	-0.0194256	0
26448	-0.017804	-0.0194702	0
26468	-0.0176514	-0.0194765	0
26488	-0.0177659	-0.0195084	0
26508	-0.017804	-0.019451	0
26528	-0.0177468	-0.0194956	0
26548	-0.0177849	-0.0196102	0
26568	-0.0176895	-0.0194765	0
26588	-0.0176704	-0.0195466	0
26608	-0.0178231	-0.019502	0
26628	-0.0176895	-0.0195084	0
26648	-0.0177468	-0.0195657	0
26668	-0.0177659	-0.0194256	0
26688	-0.0176704	-0.0194893	0
26708	-0.0175941	-0.0194702	0
26728	-0.0176704	-0.0195784	0
26748	-0.0176132	-0.0194638	0
26768	-0.017575	-0.0195402	0
26788	-0.0177086	-0.0195147	0
26808	-0.0177086	-0.0194574	0
26828	-0.0177086	-0.0195211	0
26848	-0.0177468	-0.0195147	0
26868	-0.0176895	-0.019451	0
26888	-0.0176895	-0.0194829	0
26908	-0.0177277	-0.0194893	0
26928	-0.0176132	-0.0195593	0
26948	-0.0176895	-0.0194956	0
26968	-0.0177086	-0.0195338	0
26988	-0.0175559	-0.0195402	0
27008	-0.0175941	-0.019451	0
27028	-0.0175559	-0.0194893	0
27048	-0.0175941	-0.0195529	0
27068	-0.0176323	-0.0195084	0
27088	-0.0176323	-0.0195593	0
27108	-0.0174796	-0.0195338	0
27128	-0.0176323	-0.0195784	0
27148	-0.0176514	-0.0194893	0
27168	-0.0176704	-0.0195402	0
27188	-0.0175941	-0.019451	0
27208	-0.0176514	-0.0194765	0
27228	-0.0175559	-0.0195466	0
27248	-0.0175559	-0.0194765	0
27268	-0.0176132	-0.0195084	0
27288	-0.0176895	-0.0194956	0
27308	-0.0174987	-0.0194893	0
27328	-0.0175559	-0.019502	0
27348	-0.0174987	-0.0195593	0
27368	-0.0175941	-0.0195275	0
27388	-0.0176132	-0.0194765	0
27408	-0.0175178	-0.0194893	0
27428	-0.0176323	-0.0195084	0
27448	-0.0176132	-0.0194956	0
27468	-0.017575	-0.0194638	0
27488	-0.0176704	-0.0195084	0
27508	-0.0175941	-0.0194829	0
27519.1	-0.0175369	-0.0195593	0