File: EXPERIMENTAL/Data/Battery-cycling/JP-measurements/C-cell/2024-04-19_JP-measurements_sample-A8-01_C-cell_Cu-Li-Cellgard2400-separator_25muL-LiFSI-in-DME_outside-glovebox_sigma-0.02_02_MB_C10.txt
time/s	Ewe/V	I/mA	error
60.053	2.81461	-0.0250307	0
60.1732	0.00916473	-17.6345	0
60.1736	0.00906931	-17.5586	0
60.174	0.00922198	-17.4745	0
60.1744	0.00912656	-17.396	0
60.1748	0.00914564	-17.3182	0
60.1752	0.00920289	-17.2449	0
60.1756	0.00920289	-17.1664	0
60.176	0.00916473	-17.0937	0
60.1764	0.00912656	-17.0134	0
60.1768	0.00924106	-16.9349	0
60.1772	0.00924106	-16.8622	0
60.1776	0.00924106	-16.794	0
60.178	0.00920289	-16.7187	0
60.1784	0.00926014	-16.6371	0
60.1788	0.00926014	-16.5797	0
60.1792	0.00918381	-16.4955	0
60.1796	0.0093174	-16.4222	0
60.18	0.00922198	-16.3584	0
60.1804	0.00929831	-16.2819	0
60.1808	0.00918381	-16.2239	0
60.1812	0.00914564	-16.1531	0
60.1816	0.00924106	-16.0829	0
60.182	0.00929831	-16.0109	0
60.1824	0.00916473	-15.9477	0
60.1828	0.00920289	-15.8731	0
60.1832	0.00926014	-15.8151	0
60.1836	0.00929831	-15.7526	0
60.184	0.00927923	-15.6792	0
60.1844	0.00922198	-15.6218	0
60.1848	0.00929831	-15.5523	0
60.1852	0.00927923	-15.4981	0
60.1856	0.00926014	-15.4369	0
60.186	0.00916473	-15.3597	0
60.1864	0.00918381	-15.3081	0
60.1868	0.00924106	-15.2443	0
60.1872	0.00927923	-15.1799	0
60.1876	0.00924106	-15.1257	0
60.188	0.0093174	-15.0651	0
60.1884	0.00912656	-15.002	0
60.1888	0.00924106	-14.9458	0
60.1892	0.00918381	-14.8795	0
60.1896	0.00920289	-14.8202	0
60.19	0.00922198	-14.7615	0
60.1904	0.0093174	-14.706	0
60.1908	0.0093174	-14.6512	0
60.1912	0.00933648	-14.5913	0
60.1916	0.00933648	-14.5383	0
60.192	0.00920289	-14.4835	0
60.1924	0.00920289	-14.4248	0
60.1928	0.00927923	-14.3649	0
60.1932	0.00933648	-14.3126	0
60.1936	0.00918381	-14.2545	0
60.1942	0.00922198	-14.1723	0
60.1948	0.00918381	-14.0996	0
60.1952	0.00926014	-14.0447	0
60.1956	0.00926014	-13.9918	0
60.196	0.00924106	-13.9388	0
60.1966	0.00918381	-13.8668	0
60.197	0.00914564	-13.8087	0
60.1974	0.00927923	-13.7584	0
60.1978	0.00916473	-13.708	0
60.1982	0.00922198	-13.6563	0
60.1986	0.00927923	-13.6047	0
60.1992	0.00922198	-13.5352	0
60.1996	0.00926014	-13.4771	0
60.2002	0.00927923	-13.4076	0
60.2008	0.00924106	-13.3317	0
60.2014	0.00918381	-13.2654	0
60.202	0.00929831	-13.187	0
60.2026	0.00922198	-13.1225	0
60.2032	0.00922198	-13.053	0
60.2036	0.00922198	-13.0014	0
60.2042	0.00933648	-12.9427	0
60.2046	0.00924106	-12.8917	0
60.205	0.00922198	-12.8381	0
60.2056	0.00929831	-12.775	0
60.2062	0.00924106	-12.7144	0
60.2066	0.00933648	-12.6621	0
60.2072	0.00920289	-12.5971	0
60.2078	0.00918381	-12.5377	0
60.2084	0.00918381	-12.4752	0
60.209	0.00929831	-12.4115	0
60.2096	0.00927923	-12.3439	0
60.2102	0.00933648	-12.282	0
60.2108	0.00927923	-12.2176	0
60.2114	0.00920289	-12.1577	0
60.212	0.00926014	-12.0958	0
60.2126	0.00926014	-12.0422	0
60.2132	0.00920289	-11.9759	0
60.2138	0.00910748	-11.9172	0
60.2144	0.00922198	-11.8554	0
60.215	0.00929831	-11.8024	0
60.2156	0.00920289	-11.7336	0
60.2162	0.00924106	-11.68	0
60.2168	0.00914564	-11.622	0
60.2174	0.00920289	-11.5646	0
60.218	0.0093174	-11.5142	0
60.2186	0.00933648	-11.4568	0
60.2192	0.00924106	-11.3968	0
60.2198	0.00926014	-11.3433	0
60.2204	0.00927923	-11.291	0
60.221	0.00926014	-11.231	0
60.2218	0.00927923	-11.1666	0
60.2224	0.00933648	-11.1067	0
60.2232	0.00927923	-11.048	0
60.2238	0.00920289	-10.997	0
60.2244	0.00922198	-10.9408	0
60.225	0.00918381	-10.8892	0
60.2258	0.00926014	-10.8159	0
60.2266	0.0093174	-10.7508	0
60.2272	0.00926014	-10.6998	0
60.228	0.00922198	-10.6398	0
60.2286	0.00927923	-10.5875	0
60.2294	0.00920289	-10.5289	0
60.23	0.00918381	-10.4747	0
60.2308	0.00939373	-10.4166	0
60.2314	0.0093174	-10.3637	0
60.2322	0.00918381	-10.3018	0
60.233	0.00926014	-10.2413	0
60.2338	0.00914564	-10.1839	0
60.2346	0.00937465	-10.1322	0
60.2352	0.00920289	-10.0812	0
60.236	0.00929831	-10.0206	0
60.2368	0.00922198	-9.96703	0
60.2376	0.00927923	-9.90644	0
60.2384	0.00927923	-9.84777	0
60.2392	0.00927923	-9.78718	0
60.2402	0.00918381	-9.72469	0
60.241	0.00924106	-9.66601	0
60.2418	0.00927923	-9.6067	0
60.2428	0.0093174	-9.54229	0
60.2436	0.00927923	-9.48235	0
60.2446	0.00929831	-9.42559	0
60.2454	0.00922198	-9.37074	0
60.2464	0.00922198	-9.30952	0
60.2474	0.00922198	-9.24702	0
60.2482	0.00926014	-9.19536	0
60.249	0.00926014	-9.14179	0
60.25	0.00926014	-9.0844	0
60.2508	0.00922198	-9.0321	0
60.2516	0.00927923	-8.97853	0
60.2526	0.00935556	-8.91986	0
60.2538	0.00920289	-8.85673	0
60.2548	0.00918381	-8.80379	0
60.2558	0.00924106	-8.73683	0
60.257	0.00926014	-8.67688	0
60.258	0.00924106	-8.61757	0
60.259	0.00922198	-8.56209	0
60.26	0.00922198	-8.50852	0
60.261	0.00924106	-8.44921	0
60.2622	0.00924106	-8.39118	0
60.2632	0.00926014	-8.33825	0
60.2642	0.00927923	-8.2783	0
60.2654	0.00918381	-8.22345	0
60.2666	0.00933648	-8.16223	0
60.2676	0.00914564	-8.11185	0
60.2688	0.0093174	-8.05318	0
60.27	0.00926014	-7.99259	0
60.2712	0.00924106	-7.93583	0
60.2726	0.00927923	-7.86377	0
60.274	0.00920289	-7.80637	0
60.2752	0.00924106	-7.74579	0
60.2766	0.00922198	-7.68776	0
60.278	0.00935556	-7.62462	0
60.2792	0.00926014	-7.56977	0
60.2804	0.00935556	-7.51365	0
60.2818	0.00929831	-7.46263	0
60.283	0.00920289	-7.41098	0
60.2844	0.00926014	-7.34976	0
60.2858	0.00922198	-7.29363	0
60.287	0.00927923	-7.24325	0
60.2886	0.00929831	-7.18586	0
60.2898	0.00922198	-7.13037	0
60.2912	0.00926014	-7.07808	0
60.2928	0.00922198	-7.01558	0
60.2942	0.00924106	-6.96456	0
60.2958	0.00916473	-6.91035	0
60.2972	0.00922198	-6.85551	0
60.2986	0.00933648	-6.8013	0
60.3002	0.00929831	-6.74518	0
60.3018	0.00926014	-6.69225	0
60.3034	0.00918381	-6.63358	0
60.305	0.00924106	-6.57937	0
60.3068	0.00924106	-6.52708	0
60.3086	0.00922198	-6.46203	0
60.3104	0.00933648	-6.41037	0
60.312	0.00924106	-6.35999	0
60.3138	0.00926014	-6.3045	0
60.3156	0.00918381	-6.25094	0
60.3174	0.00924106	-6.198	0
60.3192	0.0093174	-6.14061	0
60.3214	0.00908839	-6.08066	0
60.3234	0.00922198	-6.02964	0
60.3252	0.00929831	-5.97097	0
60.3272	0.00920289	-5.9174	0
60.3292	0.00924106	-5.86383	0
60.3312	0.00929831	-5.80962	0
60.3334	0.00916473	-5.75159	0
60.3358	0.00929831	-5.691	0
60.338	0.00920289	-5.63807	0
60.3402	0.00920289	-5.58641	0
60.3422	0.00918381	-5.53476	0
60.3446	0.00916473	-5.47672	0
60.347	0.00929831	-5.42379	0
60.3494	0.00927923	-5.3715	0
60.3518	0.00927923	-5.3192	0
60.3544	0.00924106	-5.26627	0
60.3568	0.00922198	-5.20887	0
60.3594	0.00914564	-5.15785	0
60.3622	0.00922198	-5.09472	0
60.3652	0.00922198	-5.04242	0
60.3678	0.00920289	-4.98949	0
60.3704	0.0093174	-4.93465	0
60.3734	0.00922198	-4.88427	0
60.3764	0.00916473	-4.82751	0
60.3796	0.00924106	-4.76947	0
60.3828	0.00916473	-4.71718	0
60.3864	0.00924106	-4.65914	0
60.3894	0.00918381	-4.60558	0
60.3926	0.00926014	-4.55392	0
60.396	0.00922198	-4.50354	0
60.3992	0.00920289	-4.45252	0
60.4028	0.00924106	-4.40022	0
60.4062	0.00918381	-4.34793	0
60.4098	0.00926014	-4.29755	0
60.4138	0.00926014	-4.24525	0
60.4168	0.00920289	-4.1936	0
60.4208	0.00920289	-4.14003	0
60.425	0.00914564	-4.08965	0
60.429	0.00929831	-4.03608	0
60.434	0.00922198	-3.97932	0
60.4382	0.00929831	-3.9283	0
60.443	0.0093174	-3.87728	0
60.4474	0.00920289	-3.82371	0
60.4528	0.0093174	-3.76695	0
60.458	0.00926014	-3.71338	0
60.4634	0.00918381	-3.66109	0
60.468	0.00924106	-3.60816	0
60.4732	0.00927923	-3.5565	0
60.4734	0.00920289	-3.61317	0
60.5036	0.00924106	-3.33706	0
60.5102	0.00924106	-3.28645	0
60.517	0.00916473	-3.23552	0
60.524	0.00914564	-3.18548	0
60.5312	0.0093174	-3.13506	0
60.5388	0.00912656	-3.08502	0
60.5468	0.00927923	-3.03243	0
60.5554	0.00922198	-2.98087	0
60.564	0.00912656	-2.93019	0
60.573	0.00918381	-2.87926	0
60.5824	0.00927923	-2.82769	0
60.5918	0.00927923	-2.77753	0
60.602	0.00922198	-2.72666	0
60.6128	0.00920289	-2.67458	0
60.6238	0.00924106	-2.62391	0
60.6354	0.00920289	-2.57349	0
60.6472	0.00916473	-2.52281	0
60.6598	0.00927923	-2.47207	0
60.673	0.00929831	-2.42152	0
60.6866	0.00927923	-2.37123	0
60.7008	0.00910748	-2.32119	0
60.7158	0.00922198	-2.27096	0
60.7314	0.00927923	-2.22054	0
60.748	0.00935556	-2.16987	0
60.7654	0.00912656	-2.11932	0
60.7836	0.00922198	-2.06928	0
60.8028	0.0093174	-2.01905	0
60.8232	0.00920289	-1.96882	0
60.8444	0.00929831	-1.9184	0
60.8674	0.00924106	-1.86772	0
60.8922	0.00920289	-1.81756	0
60.9174	0.00924106	-1.76701	0
60.9454	0.00929831	-1.71697	0
60.9748	0.00927923	-1.66668	0
61.006	0.00922198	-1.61657	0
61.0404	0.00927923	-1.56628	0
61.077	0.00929831	-1.51592	0
61.1166	0.00924106	-1.46582	0
61.1592	0.00922198	-1.41514	0
61.2066	0.00920289	-1.36491	0
61.2582	0.00922198	-1.31481	0
61.3134	0.00918381	-1.26414	0
61.3766	0.00920289	-1.21384	0
61.445	0.00916473	-1.16374	0
61.5202	0.00924106	-1.11281	0
61.6068	0.00918381	-1.06271	0
61.7028	0.00916473	-1.01216	0
61.8116	0.0093174	-0.961992	0
61.9364	0.00916473	-0.91189	0
62.0772	0.00924106	-0.861469	0
62.2416	0.00927923	-0.811366	0
62.4362	0.00918381	-0.760754	0
62.6708	0.00920289	-0.710333	0
62.9466	0.00922198	-0.659912	0
63.2908	0.00924106	-0.609683	0
63.722	0.00918381	-0.559198	0
64.2796	0.00920289	-0.509095	0
65.0072	0.00916473	-0.458993	0
66.108	0.00927923	-0.408936	0
67.5504	0.00929831	-0.358678	0
69.6834	0.00927923	-0.308668	0
73.005	0.00929831	-0.258658	0
78.5512	0.00922198	-0.208622	0
88.5512	0.0093174	-0.160669	0
98.5512	0.00929831	-0.132111	0
108.551	0.00933648	-0.111601	0
118.551	0.00920289	-0.0961345	0
128.551	0.00927923	-0.0847622	0
138.551	0.00918381	-0.0760961	0
148.551	0.00918381	-0.0693975	0
158.551	0.00927923	-0.0636604	0
168.551	0.00922198	-0.0588466	0
178.551	0.00926014	-0.0545294	0
188.551	0.00914564	-0.0511165	0
198.551	0.00916473	-0.0480283	0
208.551	0.00924106	-0.045112	0
218.551	0.00926014	-0.0430308	0
228.551	0.00926014	-0.0407779	0
238.551	0.00927923	-0.0388452	0
248.551	0.0093174	-0.0371741	0
258.551	0.00924106	-0.0353592	0
268.551	0.00924106	-0.0337703	0
278.551	0.00927923	-0.0323685	0
288.551	0.0093174	-0.0312201	0
298.551	0.00922198	-0.0299947	0
308.551	0.00922198	-0.0288686	0
318.551	0.00924106	-0.0278277	0
328.551	0.00918381	-0.0269002	0
338.551	0.00910748	-0.0260746	0
348.551	0.0093174	-0.0250866	0
358.551	0.00920289	-0.0244595	0
368.551	0.00920289	-0.0237886	0
378.551	0.00920289	-0.0229438	0
388.551	0.00927923	-0.0221595	0
398.551	0.00939373	-0.0216089	0
408.551	0.00918381	-0.0209538	0
418.551	0.00924106	-0.020295	0
428.551	0.00920289	-0.0197933	0
438.551	0.0093174	-0.0192554	0
448.551	0.00924106	-0.0187009	0
458.551	0.00922198	-0.0182954	0
468.551	0.00926014	-0.0178269	0
478.551	0.00918381	-0.0175118	0
488.551	0.00922198	-0.0168771	0
498.551	0.0093174	-0.0165588	0
508.551	0.00927923	-0.0161571	0
518.551	0.00916473	-0.0158216	0
528.551	0.00926014	-0.015392	0
538.551	0.00922198	-0.0150017	0
548.551	0.00926014	-0.014777	0
558.551	0.00924106	-0.0144231	0
568.551	0.00922198	-0.0140233	0
578.551	0.00918381	-0.0139036	0
588.551	0.00918381	-0.0135567	0
598.551	0.00926014	-0.013309	0
608.551	0.00933648	-0.0130366	0
618.551	0.00927923	-0.0128093	0
628.551	0.00916473	-0.0124655	0
638.551	0.00924106	-0.0122007	0
648.551	0.00926014	-0.0120473	0
658.551	0.00926014	-0.0119079	0
668.551	0.00914564	-0.0115686	0
678.551	0.00924106	-0.0113642	0
688.551	0.00922198	-0.0112083	0
698.551	0.00918381	-0.0109747	0
708.551	0.00918381	-0.0108792	0
718.551	0.00926014	-0.0105061	0
728.551	0.00920289	-0.0103871	0
738.551	0.00920289	-0.0103005	0
748.551	0.00922198	-0.0101197	0
758.551	0.00924106	-0.00979951	0
768.551	0.00922198	-0.00971166	0
778.551	0.0093174	-0.0095767	0
788.551	0.00927923	-0.00943856	0
798.551	0.00922198	-0.00925459	0
808.551	0.00920289	-0.00902096	0
818.551	0.00922198	-0.00884017	0
828.551	0.00920289	-0.00875486	0
838.551	0.00924106	-0.00867847	0
848.551	0.00920289	-0.00846203	0
858.551	0.00924106	-0.00838501	0
868.551	0.00926014	-0.00828633	0
878.551	0.00929831	-0.00821504	0
888.551	0.00920289	-0.00801451	0
898.551	0.00924106	-0.00781144	0
908.551	0.00922198	-0.00775223	0
918.551	0.00924106	-0.00755107	0
928.551	0.00927923	-0.00754343	0
938.551	0.00918381	-0.00743203	0
948.551	0.00924106	-0.00725888	0
958.551	0.00920289	-0.00719395	0
968.551	0.00918381	-0.00712774	0
978.551	0.00924106	-0.00697114	0
988.551	0.00924106	-0.00700806	0
998.551	0.00922198	-0.00693867	0
1008.55	0.00927923	-0.0067999	0
1018.55	0.00918381	-0.0066503	0
1028.55	0.00912656	-0.00663056	0
1038.55	0.00912656	-0.00651598	0
1048.55	0.00927923	-0.00641285	0
1058.55	0.00920289	-0.0063842	0
1068.55	0.00914564	-0.00629317	0
1078.55	0.00926014	-0.00609583	0
1088.55	0.00920289	-0.00610092	0
1098.55	0.00912656	-0.00604681	0
1108.55	0.00920289	-0.00587557	0
1118.55	0.00927923	-0.00584947	0
1128.55	0.00929831	-0.00577881	0
1138.55	0.00926014	-0.00568268	0
1148.55	0.00924106	-0.0056413	0
1158.55	0.00924106	-0.00549934	0
1168.55	0.00933648	-0.00541213	0
1178.55	0.00916473	-0.00556491	0
1188.55	0.00929831	-0.00541659	0
1198.55	0.00926014	-0.00533192	0
1208.55	0.00922198	-0.00520269	0
1218.55	0.00920289	-0.00522306	0
1228.55	0.00922198	-0.0051594	0
1238.55	0.00922198	-0.00515368	0
1248.55	0.00924106	-0.00503018	0
1258.55	0.00914564	-0.00506201	0
1268.55	0.00922198	-0.00494933	0
1278.55	0.00918381	-0.00486466	0
1288.55	0.00920289	-0.00486084	0
1298.55	0.00937465	-0.00488185	0
1308.55	0.00926014	-0.00497798	0
1318.55	0.00927923	-0.00466223	0
1328.55	0.00920289	-0.00468005	0
1338.55	0.00918381	-0.00465841	0
1348.55	0.00927923	-0.00454891	0
1358.55	0.00912656	-0.00456147	0
1368.55	0.00916473	-0.00451371	0
1378.55	0.00926014	-0.00445354	0
1388.55	0.00933648	-0.00441482	0
1398.55	0.00929831	-0.00439133	0
1408.55	0.00916473	-0.00433657	0
1418.55	0.00916473	-0.00429486	0
1428.55	0.00922198	-0.00424659	0
1438.55	0.00922198	-0.00417744	0
1448.55	0.00926014	-0.00415764	0
1458.55	0.00926014	-0.00415446	0
1468.55	0.00935556	-0.00408569	0
1478.55	0.00922198	-0.00406518	0
1488.55	0.00924106	-0.00401412	0
1498.55	0.00918381	-0.00401673	0
1504.55	0.00918381	-0.00391026	0
1504.55	0.00922198	-0.00392058	0