File: EXPERIMENTAL/Data/Battery-cycling/JP-measurements/C-cell/2024-04-22_JP-measurements_sample-A7-01_C-cell_Cu-Li-Cellgard2400-separator_25muL-LiFSI-in-DME_outside-glovebox_sigma-0.02_03_CP_C10.txt
time/s	Ewe/V	I/mA	error
10787.9	0.00732896	-0.0195956	0
10787.9	0.00429468	-0.0195957	0
10788	0.00118407	-0.0195955	0
10788	-0.00194563	-0.0195959	0
10788.1	-0.00503716	-0.0195952	0
10788.1	-0.00812869	-0.0195956	0
10788.2	-0.011163	-0.0195956	0
10788.2	-0.0142736	-0.0195956	0
10788.3	-0.0173842	-0.0195954	0
10788.4	-0.0204566	-0.0195958	0
10788.4	-0.0235482	-0.019595	0
10788.5	-0.0266015	-0.0195959	0
10788.6	-0.029674	-0.0195957	0
10788.7	-0.0327464	-0.0195956	0
10788.8	-0.035838	-0.0195958	0
10788.9	-0.0389295	-0.0195955	0
10789	-0.0419638	-0.0195961	0
10789.1	-0.044998	-0.0195956	0
10789.2	-0.0480705	-0.0195954	0
10789.3	-0.0511811	-0.019595	0
10789.4	-0.0542536	-0.0195959	0
10789.5	-0.057326	-0.0195959	0
10789.6	-0.0604366	-0.0195958	0
10789.8	-0.0635663	-0.0195961	0
10790	-0.066696	-0.0195959	0
10790.1	-0.0698257	-0.0195954	0
10790.3	-0.0729172	-0.0195952	0
10790.5	-0.0760088	-0.0195957	0
10790.7	-0.0791194	-0.0195954	0
10791	-0.08223	-0.0195958	0
10791.3	-0.0853024	-0.0195958	0
10791.7	-0.0883749	-0.0195959	0
10792.9	-0.0873635	-0.0195958	0
10793.3	-0.0842338	-0.0195959	0
10793.6	-0.0811422	-0.0195953	0
10793.9	-0.0780889	-0.0195955	0
10794.1	-0.0750164	-0.0195959	0
10794.4	-0.0719631	-0.0195954	0
10794.7	-0.0688906	-0.0195957	0
10795.1	-0.0658182	-0.0195955	0
10795.5	-0.0627839	-0.0195956	0
10795.9	-0.0596924	-0.0195958	0
10796.5	-0.0566199	-0.0195952	0
10797.3	-0.0535475	-0.0195957	0
10798.4	-0.050475	-0.0195951	0
10800.2	-0.0474407	-0.0195956	0
10803.2	-0.0443683	-0.0195958	0
10808.6	-0.041334	-0.0195955	0
10820.2	-0.0382997	-0.0195954	0
10835.2	-0.0363723	-0.0195953	0
10850.2	-0.0349792	-0.0195954	0
10865.2	-0.0337388	-0.0195956	0
10880.2	-0.0329754	-0.0195956	0
10895.2	-0.0320213	-0.0195952	0
10910.2	-0.0314297	-0.0195956	0
10925.2	-0.0307617	-0.019596	0
10940.2	-0.0300557	-0.0195962	0
10955.2	-0.029445	-0.0195951	0
10970.2	-0.0291206	-0.0195958	0
10985.2	-0.0285099	-0.0195959	0
11000.2	-0.0279565	-0.0195953	0
11015.2	-0.0277275	-0.0195957	0
11030.2	-0.0272885	-0.0195961	0
11045.2	-0.0270595	-0.0195954	0
11060.2	-0.0267733	-0.0195958	0
11075.2	-0.0265252	-0.0195954	0
11090.2	-0.0262199	-0.0195956	0
11105.2	-0.0258764	-0.0195958	0
11120.2	-0.0256664	-0.0195954	0
11135.2	-0.0255519	-0.0195956	0
11150.2	-0.0252657	-0.0195956	0
11165.2	-0.0250558	-0.0195962	0
11180.2	-0.0249794	-0.0195959	0
11195.2	-0.0247314	-0.019596	0
11210.2	-0.0245787	-0.0195958	0
11225.2	-0.024426	-0.0195954	0
11240.2	-0.0242924	-0.0195956	0
11255.2	-0.0239871	-0.0195957	0
11270.2	-0.0239489	-0.0195952	0
11285.2	-0.0237963	-0.0195956	0
11300.2	-0.0237581	-0.0195959	0
11315.2	-0.0236054	-0.0195956	0
11330.2	-0.0236245	-0.0195956	0
11345.2	-0.0234337	-0.0195958	0
11360.2	-0.0233001	-0.019596	0
11375.2	-0.0232047	-0.0195954	0
11390.2	-0.0231093	-0.0195947	0
11405.2	-0.0230902	-0.0195956	0
11420.2	-0.0229566	-0.0195954	0
11435.2	-0.0227848	-0.0195958	0
11450.2	-0.022823	-0.0195952	0
11465.2	-0.0225749	-0.0195954	0
11480.2	-0.022594	-0.0195961	0
11495.2	-0.022594	-0.0195952	0
11510.2	-0.0224222	-0.0195958	0
11525.2	-0.0223841	-0.0195956	0
11540.2	-0.0223459	-0.0195963	0
11555.2	-0.0223459	-0.0195949	0
11570.2	-0.0221742	-0.019596	0
11585.2	-0.0220597	-0.0195954	0
11600.2	-0.0221551	-0.0195957	0
11615.2	-0.0220978	-0.0195959	0
11630.2	-0.0219452	-0.0195955	0
11645.2	-0.0218879	-0.0195953	0
11660.2	-0.0218879	-0.0195956	0
11675.2	-0.0217734	-0.0195954	0
11690.2	-0.0218497	-0.0195959	0
11705.2	-0.0216017	-0.0195958	0
11720.2	-0.0216398	-0.0195959	0
11735.2	-0.0217162	-0.0195958	0
11750.2	-0.0215826	-0.019595	0
11765.2	-0.0213727	-0.0195958	0
11780.2	-0.0214872	-0.0195953	0
11795.2	-0.0213345	-0.0195961	0
11810.2	-0.0213727	-0.0195957	0
11825.2	-0.0211818	-0.019596	0
11840.2	-0.0211627	-0.0195957	0
11855.2	-0.0210673	-0.0195957	0
11870.2	-0.0211627	-0.0195954	0
11885.2	-0.0210482	-0.0195958	0
11900.2	-0.0210864	-0.0195955	0
11915.2	-0.0210864	-0.0195959	0
11930.2	-0.0209528	-0.019596	0
11945.2	-0.0208574	-0.0195954	0
11960.2	-0.0208956	-0.0195956	0
11975.2	-0.0207811	-0.0195957	0
11990.2	-0.0208383	-0.0195959	0
12005.2	-0.0208956	-0.0195956	0
12020.2	-0.0207047	-0.0195963	0
12035.2	-0.0205711	-0.0195954	0
12050.2	-0.0206093	-0.0195955	0
12065.2	-0.0206666	-0.0195954	0
12080.2	-0.0206284	-0.0195954	0
12095.2	-0.0206284	-0.0195952	0
12110.2	-0.0204948	-0.0195953	0
12125.2	-0.0205521	-0.0195951	0
12140.2	-0.0204376	-0.0195954	0
12155.2	-0.0203994	-0.0195961	0
12170.2	-0.0204185	-0.0195955	0
12185.2	-0.0203612	-0.0195955	0
12200.2	-0.020304	-0.0195956	0
12215.2	-0.020304	-0.0195955	0
12230.2	-0.0203612	-0.019595	0
12245.2	-0.0203421	-0.0195952	0
12260.2	-0.0200941	-0.0195956	0
12275.2	-0.0200941	-0.0195956	0
12290.2	-0.0200941	-0.0195958	0
12305.2	-0.0200177	-0.0195951	0
12320.2	-0.0201131	-0.0195963	0
12335.2	-0.0200559	-0.0195952	0
12350.2	-0.0199414	-0.0195958	0
12365.2	-0.0200368	-0.0195955	0
12380.2	-0.0200368	-0.0195958	0
12395.2	-0.0198841	-0.0195958	0
12410.2	-0.0198841	-0.0195961	0
12425.2	-0.0198269	-0.0195958	0
12440.2	-0.0199414	-0.0195956	0
12455.2	-0.019846	-0.0195962	0
12470.2	-0.0199032	-0.0195956	0
12485.2	-0.0196551	-0.0195957	0
12500.2	-0.019846	-0.019595	0
12515.2	-0.0197124	-0.0195958	0
12530.2	-0.0196361	-0.0195961	0
12545.2	-0.0196933	-0.019596	0
12560.2	-0.0196361	-0.0195951	0
12575.2	-0.0195788	-0.0195955	0
12590.2	-0.0195597	-0.0195956	0
12605.2	-0.0194452	-0.0195952	0
12620.2	-0.0195788	-0.0195962	0
12635.2	-0.019388	-0.0195956	0
12650.2	-0.0195215	-0.0195958	0
12665.2	-0.0195215	-0.0195959	0
12680.2	-0.0194834	-0.0195956	0
12695.2	-0.0194452	-0.0195961	0
12710.2	-0.0194261	-0.0195961	0
12725.2	-0.0195025	-0.0195957	0
12740.2	-0.0193689	-0.0195958	0
12755.2	-0.0193307	-0.0195952	0
12770.2	-0.0192735	-0.0195958	0
12785.2	-0.0193498	-0.0195954	0
12800.2	-0.0193498	-0.0195952	0
12815.2	-0.0191971	-0.0195961	0
12830.2	-0.0192162	-0.0195956	0
12845.2	-0.0193498	-0.0195958	0
12860.2	-0.0192162	-0.0195954	0
12875.2	-0.0191971	-0.0195957	0
12890.2	-0.0191971	-0.0195954	0
12905.2	-0.019178	-0.0195956	0
12920.2	-0.0191017	-0.0195954	0
12935.2	-0.0190635	-0.0195962	0
12950.2	-0.0190826	-0.0195954	0
12965.2	-0.0191208	-0.0195956	0
12980.2	-0.0191208	-0.0195958	0
12995.2	-0.0190635	-0.0195959	0
13010.2	-0.0189681	-0.0195956	0
13025.2	-0.0190254	-0.0195955	0
13040.2	-0.018949	-0.0195951	0
13055.2	-0.0190445	-0.0195953	0
13070.2	-0.0187964	-0.0195956	0
13085.2	-0.01893	-0.0195953	0
13100.2	-0.01893	-0.0195954	0
13115.2	-0.0188918	-0.0195956	0
13130.2	-0.0188727	-0.0195954	0
13145.2	-0.0188918	-0.0195957	0
13160.2	-0.0188918	-0.0195951	0
13175.2	-0.0188345	-0.0195954	0
13190.2	-0.0188727	-0.0195954	0
13205.2	-0.0187773	-0.0195956	0
13220.2	-0.0188918	-0.0195956	0
13235.2	-0.0189109	-0.0195955	0
13250.2	-0.0187964	-0.0195958	0
13265.2	-0.01872	-0.0195956	0
13280.2	-0.0186628	-0.0195955	0
13295.2	-0.01872	-0.0195956	0
13310.2	-0.0186055	-0.0195952	0
13325.2	-0.0187391	-0.0195954	0
13340.2	-0.0186055	-0.0195953	0
13355.2	-0.0186246	-0.0195964	0
13370.2	-0.0187582	-0.0195956	0
13385.2	-0.0185674	-0.0195951	0
13400.2	-0.0186628	-0.0195958	0
13415.2	-0.0186628	-0.0195956	0
13430.2	-0.0186819	-0.0195958	0
13445.2	-0.0185865	-0.0195952	0
13460.2	-0.0186437	-0.0195958	0
13475.2	-0.0185101	-0.0195958	0
13490.2	-0.0185483	-0.0195957	0
13505.2	-0.018472	-0.0195957	0
13520.2	-0.0185674	-0.0195958	0
13535.2	-0.018472	-0.0195957	0
13550.2	-0.0185292	-0.0195954	0
13565.2	-0.0185674	-0.0195958	0
13580.2	-0.018491	-0.0195957	0
13595.2	-0.0185674	-0.0195956	0
13610.2	-0.0183956	-0.0195953	0
13625.2	-0.0183575	-0.0195958	0
13640.2	-0.0183956	-0.0195954	0
13655.2	-0.0183575	-0.0195957	0
13670.2	-0.0184529	-0.0195954	0
13685.2	-0.0183384	-0.0195955	0
13700.2	-0.0183384	-0.0195956	0
13715.2	-0.0183193	-0.0195957	0
13730.2	-0.018262	-0.0195956	0
13745.2	-0.0182811	-0.0195956	0
13760.2	-0.0183002	-0.0195955	0
13775.2	-0.0181857	-0.0195957	0
13790.2	-0.018243	-0.019595	0
13805.2	-0.0181475	-0.0195955	0
13820.2	-0.0181094	-0.0195957	0
13835.2	-0.0181094	-0.0195954	0
13850.2	-0.0181285	-0.0195954	0
13865.2	-0.0180521	-0.0195958	0
13880.2	-0.0179758	-0.0195959	0
13895.2	-0.0180521	-0.0195953	0
13910.2	-0.018033	-0.0195958	0
13925.2	-0.018014	-0.0195959	0
13940.2	-0.018014	-0.0195955	0
13955.2	-0.0179376	-0.0195958	0
13970.2	-0.0179185	-0.0195959	0
13985.2	-0.0179185	-0.0195961	0
14000.2	-0.0179949	-0.0195955	0
14015.2	-0.0179185	-0.0195957	0
14030.2	-0.0176895	-0.0195952	0
14045.2	-0.017804	-0.0195951	0
14060.2	-0.0178422	-0.0195962	0
14075.2	-0.0177659	-0.0195959	0
14090.2	-0.0177086	-0.0195956	0
14105.2	-0.0177086	-0.0195959	0
14120.2	-0.0176704	-0.0195953	0
14135.2	-0.0177086	-0.0195958	0
14150.2	-0.017804	-0.0195954	0
14165.2	-0.0177086	-0.0195954	0
14180.2	-0.0178231	-0.0195952	0
14195.2	-0.0177277	-0.0195956	0
14210.2	-0.0177086	-0.0195954	0
14225.2	-0.0176323	-0.0195957	0
14240.2	-0.0176514	-0.0195953	0
14255.2	-0.0175559	-0.0195952	0
14270.2	-0.017575	-0.0195961	0
14285.2	-0.0176323	-0.0195954	0
14300.2	-0.0175941	-0.0195951	0
14315.2	-0.0175559	-0.0195958	0
14330.2	-0.0174987	-0.0195953	0
14345.2	-0.017575	-0.0195959	0
14360.2	-0.0175559	-0.0195958	0
14375.2	-0.0174796	-0.0195954	0
14390.2	-0.0174796	-0.0195954	0
14405.2	-0.0175369	-0.0195954	0
14420.2	-0.0174605	-0.0195951	0
14435.2	-0.0174033	-0.0195954	0
14450.2	-0.0174414	-0.0195956	0
14465.2	-0.0174796	-0.0195959	0
14480.2	-0.0174414	-0.0195951	0
14495.2	-0.0174605	-0.0195954	0
14510.2	-0.0173842	-0.0195962	0
14525.2	-0.0174605	-0.0195954	0
14540.2	-0.0174033	-0.0195955	0
14555.2	-0.0173079	-0.0195953	0
14570.2	-0.0174987	-0.0195953	0
14585.2	-0.0173651	-0.0195949	0
14600.2	-0.0172888	-0.0195958	0
14615.2	-0.0173079	-0.0195957	0
14630.2	-0.0173269	-0.0195961	0
14645.2	-0.0173842	-0.0195954	0
14660.2	-0.0172697	-0.0195954	0
14675.2	-0.0172697	-0.0195955	0
14690.2	-0.0172315	-0.0195956	0
14705.2	-0.0172697	-0.0195957	0
14720.2	-0.0172888	-0.0195956	0
14735.2	-0.017346	-0.0195952	0
14750.2	-0.017346	-0.0195956	0
14765.2	-0.0171934	-0.0195952	0
14780.2	-0.0172888	-0.0195961	0
14795.2	-0.0173651	-0.0195956	0
14810.2	-0.0172697	-0.0195951	0
14825.2	-0.0174224	-0.0195953	0
14840.2	-0.0173269	-0.0195954	0
14855.2	-0.0173842	-0.0195962	0
14870.2	-0.0174033	-0.0195956	0
14885.2	-0.0173651	-0.0195958	0
14900.2	-0.0172506	-0.0195958	0
14915.2	-0.0172506	-0.0195956	0
14930.2	-0.0172506	-0.0195958	0
14945.2	-0.0173079	-0.0195958	0
14960.2	-0.0173269	-0.0195959	0
14975.2	-0.0172697	-0.0195967	0
14990.2	-0.0172506	-0.0195959	0
15005.2	-0.0173842	-0.0195954	0
15020.2	-0.0172315	-0.0195959	0
15035.2	-0.0172315	-0.0195953	0
15050.2	-0.0172697	-0.0195953	0
15065.2	-0.0172888	-0.019596	0
15080.2	-0.0172506	-0.0195958	0
15095.2	-0.0172506	-0.0195952	0
15110.2	-0.0173269	-0.019596	0
15125.2	-0.0172315	-0.0195952	0
15140.2	-0.017346	-0.019596	0
15155.2	-0.0173079	-0.0195954	0
15170.2	-0.0173269	-0.0195959	0
15185.2	-0.0172697	-0.0195958	0
15200.2	-0.0172124	-0.019596	0
15215.2	-0.0173079	-0.0195958	0
15230.2	-0.0172315	-0.0195959	0
15245.2	-0.0173842	-0.0195961	0
15260.2	-0.0172697	-0.0195955	0
15275.2	-0.0174224	-0.0195953	0
15290.2	-0.0171934	-0.0195961	0
15305.2	-0.0172124	-0.0195953	0
15320.2	-0.017346	-0.0195954	0
15335.2	-0.0172315	-0.0195958	0
15350.2	-0.0171743	-0.0195961	0
15365.2	-0.0172697	-0.0195959	0
15380.2	-0.0172315	-0.0195956	0
15395.2	-0.0172506	-0.0195952	0
15410.2	-0.0170598	-0.0195956	0
15425.2	-0.017117	-0.0195955	0
15440.2	-0.0171934	-0.0195956	0
15455.2	-0.0172506	-0.0195954	0
15470.2	-0.0173079	-0.0195958	0
15485.2	-0.0171361	-0.0195954	0
15500.2	-0.0173079	-0.0195952	0
15515.2	-0.0171552	-0.0195956	0
15530.2	-0.0172697	-0.0195954	0
15545.2	-0.0172315	-0.0195951	0
15560.2	-0.0171743	-0.0195957	0
15575.2	-0.0172697	-0.0195956	0
15590.2	-0.0172697	-0.0195958	0
15605.2	-0.0173079	-0.019596	0
15620.2	-0.0172697	-0.0195956	0
15635.2	-0.0172888	-0.0195955	0
15650.2	-0.0171552	-0.0195959	0
15665.2	-0.0170789	-0.0195954	0
15680.2	-0.0170598	-0.019596	0
15695.2	-0.0170979	-0.019596	0
15710.2	-0.0171361	-0.0195957	0
15725.2	-0.0171743	-0.0195955	0
15740.2	-0.0170407	-0.0195958	0
15755.2	-0.017117	-0.0195958	0
15770.2	-0.0171552	-0.0195958	0
15785.2	-0.0170216	-0.0195963	0
15800.2	-0.0171743	-0.0195952	0
15815.2	-0.0172315	-0.0195958	0
15830.2	-0.0170598	-0.0195956	0
15845.2	-0.0170979	-0.0195958	0
15860.2	-0.0170216	-0.0195956	0
15875.2	-0.0170598	-0.0195956	0
15890.2	-0.0170407	-0.0195954	0
15905.2	-0.0170025	-0.0195953	0
15920.2	-0.0170979	-0.0195956	0
15935.2	-0.0170789	-0.0195958	0
15950.2	-0.0170979	-0.019595	0
15965.2	-0.0170407	-0.0195954	0
15980.2	-0.0169834	-0.0195956	0
15995.2	-0.0169262	-0.0195956	0
16010.2	-0.0170216	-0.0195955	0
16025.2	-0.0170789	-0.0195956	0
16040.2	-0.0170025	-0.0195952	0
16055.2	-0.0170025	-0.0195956	0
16070.2	-0.0169071	-0.0195955	0
16085.2	-0.016888	-0.019596	0
16100.2	-0.0168689	-0.0195959	0
16115.2	-0.0169834	-0.0195959	0
16130.2	-0.0169453	-0.0195956	0
16145.2	-0.0170025	-0.0195959	0
16160.2	-0.016888	-0.019596	0
16175.2	-0.0170598	-0.0195959	0
16190.2	-0.0170789	-0.0195958	0
16205.2	-0.0170025	-0.0195961	0
16220.2	-0.016888	-0.0195959	0
16235.2	-0.0169071	-0.0195951	0
16250.2	-0.0168499	-0.0195957	0
16265.2	-0.0169644	-0.0195956	0
16280.2	-0.0168499	-0.0195959	0
16295.2	-0.0168117	-0.0195959	0
16310.2	-0.0167735	-0.0195964	0
16325.2	-0.0168689	-0.0195955	0
16340.2	-0.016888	-0.0195951	0
16355.2	-0.0169071	-0.0195961	0
16370.2	-0.0168689	-0.0195958	0
16385.2	-0.0169071	-0.0195952	0
16400.2	-0.0168117	-0.0195958	0
16415.2	-0.0169071	-0.0195958	0
16430.2	-0.0168308	-0.0195956	0
16445.2	-0.0168308	-0.0195956	0
16460.2	-0.0169071	-0.0195954	0
16475.2	-0.0168499	-0.0195959	0
16490.2	-0.0168308	-0.0195959	0
16505.2	-0.0168499	-0.0195956	0
16520.2	-0.0167735	-0.0195958	0
16535.2	-0.0169453	-0.0195955	0
16550.2	-0.0167544	-0.0195963	0
16565.2	-0.0166781	-0.0195958	0
16580.2	-0.0168308	-0.0195957	0
16595.2	-0.016659	-0.0195955	0
16610.2	-0.0167544	-0.0195958	0
16625.2	-0.0168499	-0.0195958	0
16640.2	-0.0166781	-0.019596	0
16655.2	-0.0166781	-0.0195963	0
16670.2	-0.0167544	-0.0195959	0
16685.2	-0.016659	-0.0195954	0
16700.2	-0.0167163	-0.0195958	0
16715.2	-0.0166399	-0.0195954	0
16730.2	-0.0166972	-0.0195956	0
16745.2	-0.0166972	-0.0195964	0
16760.2	-0.0166399	-0.0195952	0
16775.2	-0.0167163	-0.0195956	0
16790.2	-0.0167354	-0.019596	0
16805.2	-0.0165254	-0.019596	0
16820.2	-0.016659	-0.0195956	0
16835.2	-0.0166972	-0.0195963	0
16850.2	-0.0166399	-0.0195958	0
16865.2	-0.0166781	-0.0195956	0
16880.2	-0.0166972	-0.0195952	0
16895.2	-0.0165827	-0.0195957	0
16910.2	-0.0166781	-0.019595	0
16925.2	-0.0166781	-0.0195957	0
16940.2	-0.0166399	-0.0195954	0
16955.2	-0.0166781	-0.0195962	0
16970.2	-0.016659	-0.0195961	0
16985.2	-0.0166399	-0.019596	0
17000.2	-0.0166018	-0.0195956	0
17015.2	-0.0166399	-0.0195956	0
17030.2	-0.0165827	-0.0195958	0
17045.2	-0.0166399	-0.019596	0
17060.2	-0.0167163	-0.0195955	0
17075.2	-0.0166018	-0.0195954	0
17090.2	-0.0166781	-0.0195959	0
17105.2	-0.0166209	-0.0195959	0
17120.2	-0.0166209	-0.0195958	0
17135.2	-0.0165445	-0.0195958	0
17150.2	-0.0167163	-0.0195954	0
17165.2	-0.01643	-0.0195952	0
17180.2	-0.0166018	-0.0195956	0
17195.2	-0.0165636	-0.0195951	0
17210.2	-0.0164491	-0.0195953	0
17225.2	-0.01643	-0.0195954	0
17240.2	-0.0165827	-0.0195959	0
17255.2	-0.0165254	-0.0195956	0
17270.2	-0.0165636	-0.0195953	0
17285.2	-0.0165445	-0.0195955	0
17300.2	-0.0165445	-0.0195958	0
17315.2	-0.0164873	-0.0195956	0
17330.2	-0.0165827	-0.0195954	0
17345.2	-0.0165636	-0.0195949	0
17360.2	-0.0166018	-0.0195958	0
17375.2	-0.0165827	-0.0195953	0
17390.2	-0.0165254	-0.0195959	0
17405.2	-0.0165254	-0.0195961	0
17420.2	-0.0164682	-0.019596	0
17435.2	-0.0165254	-0.0195957	0
17450.2	-0.0164873	-0.0195956	0
17465.2	-0.0165445	-0.0195955	0
17480.2	-0.0164491	-0.0195959	0
17495.2	-0.0165254	-0.0195954	0
17510.2	-0.0163728	-0.0195956	0
17525.2	-0.0165445	-0.0195959	0
17540.2	-0.0164873	-0.0195956	0
17555.2	-0.0165064	-0.0195955	0
17570.2	-0.0164491	-0.019596	0
17585.2	-0.0165254	-0.0195959	0
17600.2	-0.0165445	-0.0195958	0
17615.2	-0.0164109	-0.0195954	0
17630.2	-0.0164873	-0.0195958	0
17645.2	-0.0165636	-0.0195954	0
17660.2	-0.01643	-0.0195958	0
17675.2	-0.0165064	-0.0195954	0
17690.2	-0.0164682	-0.019596	0
17705.2	-0.0163346	-0.0195952	0
17720.2	-0.01643	-0.0195957	0
17735.2	-0.0163728	-0.0195959	0
17750.2	-0.0164109	-0.0195952	0
17765.2	-0.0164491	-0.0195952	0
17780.2	-0.0163346	-0.0195952	0
17795.2	-0.0163346	-0.0195962	0
17810.2	-0.0163346	-0.0195952	0
17825.2	-0.0163155	-0.0195954	0
17840.2	-0.0163919	-0.0195956	0
17855.2	-0.0163537	-0.0195955	0
17870.2	-0.0163537	-0.0195956	0
17885.2	-0.0162964	-0.0195956	0
17900.2	-0.0163346	-0.0195958	0
17915.2	-0.0163346	-0.0195961	0
17930.2	-0.0163728	-0.0195956	0
17945.2	-0.0163537	-0.0195951	0
17960.2	-0.0164109	-0.0195959	0
17975.2	-0.0163537	-0.0195955	0
17990.2	-0.0163919	-0.0195961	0
18005.2	-0.0163919	-0.0195955	0
18020.2	-0.0162583	-0.0195953	0
18035.2	-0.0162774	-0.0195958	0
18050.2	-0.0163346	-0.0195961	0
18065.2	-0.0162964	-0.0195958	0
18080.2	-0.0164109	-0.0195962	0
18095.2	-0.016201	-0.0195958	0
18110.2	-0.0163537	-0.0195958	0
18125.2	-0.0162583	-0.0195954	0
18140.2	-0.0162964	-0.0195962	0
18155.2	-0.0162583	-0.0195955	0
18170.2	-0.0162774	-0.0195956	0
18185.2	-0.0163346	-0.0195952	0
18200.2	-0.0164109	-0.0195954	0
18215.2	-0.0163155	-0.0195956	0
18230.2	-0.0162774	-0.0195961	0
18245.2	-0.0162774	-0.0195954	0
18260.2	-0.0162583	-0.0195961	0
18275.2	-0.0162964	-0.0195956	0
18290.2	-0.0162774	-0.0195956	0
18305.2	-0.0162583	-0.0195953	0
18320.2	-0.0162964	-0.0195959	0
18335.2	-0.0162392	-0.0195954	0
18350.2	-0.0162774	-0.0195958	0
18365.2	-0.0162392	-0.0195951	0
18380.2	-0.0162201	-0.0195959	0
18395.2	-0.0162774	-0.0195956	0
18410.2	-0.0162583	-0.0195959	0
18425.2	-0.016201	-0.0195958	0
18440.2	-0.0162964	-0.0195953	0
18455.2	-0.0162201	-0.0195956	0
18470.2	-0.0162392	-0.0195959	0
18485.2	-0.016201	-0.0195953	0
18500.2	-0.0161819	-0.0195956	0
18515.2	-0.0161438	-0.0195959	0
18530.2	-0.0161438	-0.0195957	0
18545.2	-0.0162201	-0.0195958	0
18560.2	-0.0160293	-0.0195954	0
18575.2	-0.0160293	-0.0195957	0
18590.2	-0.0161629	-0.0195958	0
18605.2	-0.0160483	-0.0195953	0
18620.2	-0.0159529	-0.0195959	0
18635.2	-0.0161247	-0.0195963	0
18650.2	-0.0161629	-0.0195956	0
18665.2	-0.0160293	-0.0195959	0
18680.2	-0.0160102	-0.0195954	0
18695.2	-0.0158766	-0.0195963	0
18710.2	-0.0160483	-0.0195954	0
18725.2	-0.0159338	-0.0195954	0
18740.2	-0.0159148	-0.0195957	0
18755.2	-0.0159338	-0.0195957	0
18770.2	-0.0159529	-0.0195951	0
18785.2	-0.0159148	-0.0195961	0
18800.2	-0.0157812	-0.0195953	0
18815.2	-0.0158384	-0.0195956	0
18830.2	-0.0158575	-0.0195958	0
18845.2	-0.0159148	-0.0195959	0
18860.2	-0.0159148	-0.0195959	0
18875.2	-0.0160293	-0.0195956	0
18890.2	-0.0159338	-0.0195956	0
18905.2	-0.0158957	-0.0195954	0
18920.2	-0.0158575	-0.0195959	0
18935.2	-0.0158575	-0.0195959	0
18950.2	-0.0158003	-0.0195962	0
18965.2	-0.0159338	-0.0195952	0
18980.2	-0.0159148	-0.019596	0
18995.2	-0.0158193	-0.0195957	0
19010.2	-0.0158193	-0.0195956	0
19025.2	-0.0157621	-0.0195961	0
19040.2	-0.0158575	-0.0195958	0
19055.2	-0.0157812	-0.0195954	0
19070.2	-0.0157621	-0.0195955	0
19085.2	-0.015743	-0.0195956	0
19100.2	-0.0157621	-0.0195954	0
19115.2	-0.0157621	-0.0195958	0
19130.2	-0.0158193	-0.0195954	0
19145.2	-0.0156285	-0.0195958	0
19160.2	-0.0156476	-0.0195954	0
19175.2	-0.0157239	-0.019595	0
19190.2	-0.0156094	-0.0195958	0
19205.2	-0.0156667	-0.019596	0
19220.2	-0.0157812	-0.0195953	0
19235.2	-0.0157048	-0.0195956	0
19250.2	-0.0157621	-0.019596	0
19265.2	-0.0156858	-0.0195958	0
19280.2	-0.0157239	-0.0195954	0
19295.2	-0.0156858	-0.0195954	0
19310.2	-0.0157239	-0.0195954	0
19325.2	-0.0157239	-0.0195958	0
19340.2	-0.015743	-0.0195957	0
19355.2	-0.0158003	-0.0195952	0
19370.2	-0.0157048	-0.0195952	0
19385.2	-0.0157621	-0.0195958	0
19400.2	-0.0157048	-0.0195958	0
19415.2	-0.0156476	-0.0195953	0
19430.2	-0.0156667	-0.0195961	0
19445.2	-0.0157048	-0.0195952	0
19460.2	-0.0155903	-0.0195957	0
19475.2	-0.0157239	-0.0195954	0
19490.2	-0.0157239	-0.0195952	0
19505.2	-0.0157239	-0.019596	0
19520.2	-0.015743	-0.0195962	0
19535.2	-0.0157239	-0.0195949	0
19550.2	-0.015743	-0.0195957	0
19565.2	-0.0156285	-0.0195957	0
19580.2	-0.0157239	-0.0195959	0
19595.2	-0.0157048	-0.0195958	0
19610.2	-0.0156667	-0.0195957	0
19625.2	-0.0156858	-0.0195953	0
19640.2	-0.0156476	-0.0195956	0
19655.2	-0.0156476	-0.0195962	0
19670.2	-0.0156285	-0.019596	0
19685.2	-0.0157239	-0.0195956	0
19700.2	-0.0155713	-0.0195955	0
19715.2	-0.0156667	-0.0195961	0
19730.2	-0.0156858	-0.0195953	0
19745.2	-0.0156094	-0.0195956	0
19760.2	-0.0156476	-0.0195959	0
19775.2	-0.0156285	-0.0195961	0
19790.2	-0.0155903	-0.0195961	0
19805.2	-0.0155522	-0.0195962	0
19820.2	-0.0155713	-0.0195957	0
19835.2	-0.0154949	-0.0195956	0
19850.2	-0.0155522	-0.0195959	0
19865.2	-0.0155903	-0.019595	0
19880.2	-0.0154377	-0.0195956	0
19895.2	-0.015514	-0.0195956	0
19910.2	-0.0155713	-0.0195956	0
19925.2	-0.0156476	-0.0195958	0
19940.2	-0.015514	-0.0195956	0
19955.2	-0.0154568	-0.0195959	0
19970.2	-0.0154568	-0.0195959	0
19985.2	-0.0154949	-0.0195957	0
20000.2	-0.0154377	-0.0195958	0
20015.2	-0.0153995	-0.0195953	0
20030.2	-0.0154568	-0.0195959	0
20045.2	-0.015514	-0.0195956	0
20060.2	-0.0154758	-0.0195959	0
20075.2	-0.0154186	-0.0195957	0
20090.2	-0.0154186	-0.0195959	0
20105.2	-0.015285	-0.0195956	0
20120.2	-0.0153423	-0.0195961	0
20135.2	-0.0154568	-0.0195959	0
20150.2	-0.0154377	-0.0195958	0
20165.2	-0.0154377	-0.0195961	0
20180.2	-0.0154186	-0.0195959	0
20195.2	-0.0153041	-0.0195959	0
20210.2	-0.0154758	-0.0195961	0
20225.2	-0.0154377	-0.0195956	0
20240.2	-0.0153232	-0.0195959	0
20255.2	-0.0153995	-0.0195952	0
20270.2	-0.0154377	-0.0195957	0
20285.2	-0.0154568	-0.0195958	0
20300.2	-0.0154377	-0.019596	0
20315.2	-0.0153613	-0.0195961	0
20330.2	-0.0155331	-0.0195958	0
20345.2	-0.0154377	-0.0195958	0
20360.2	-0.0154377	-0.0195955	0
20375.2	-0.0153804	-0.0195958	0
20390.2	-0.0154758	-0.0195951	0
20405.2	-0.0154758	-0.0195961	0
20420.2	-0.0154568	-0.0195956	0
20435.2	-0.0154758	-0.0195956	0
20450.2	-0.0154949	-0.0195959	0
20465.2	-0.0156285	-0.0195957	0
20480.2	-0.0155903	-0.0195954	0
20495.2	-0.0154758	-0.0195954	0
20510.2	-0.0155331	-0.0195956	0
20525.2	-0.0156094	-0.0195954	0
20540.2	-0.0155713	-0.0195959	0
20555.2	-0.0155331	-0.0195957	0
20570.2	-0.0156858	-0.0195954	0
20585.2	-0.0156094	-0.0195958	0
20600.2	-0.0156858	-0.0195958	0
20615.2	-0.0155522	-0.0195953	0
20630.2	-0.0155903	-0.0195959	0
20645.2	-0.0156094	-0.0195962	0
20660.2	-0.0157048	-0.0195954	0
20675.2	-0.0156094	-0.0195957	0
20690.2	-0.0155713	-0.0195957	0
20705.2	-0.0156667	-0.0195954	0
20720.2	-0.0156094	-0.0195956	0
20735.2	-0.0157048	-0.0195953	0
20750.2	-0.0155522	-0.0195957	0
20765.2	-0.0154949	-0.0195952	0
20780.2	-0.0157239	-0.0195958	0
20795.2	-0.0158193	-0.0195956	0
20810.2	-0.0155903	-0.0195959	0
20825.2	-0.0157048	-0.0195959	0
20840.2	-0.0156476	-0.0195951	0
20855.2	-0.0156858	-0.0195954	0
20870.2	-0.0157239	-0.0195956	0
20885.2	-0.0156285	-0.0195959	0
20900.2	-0.0158193	-0.0195953	0
20915.2	-0.0156858	-0.0195954	0
20930.2	-0.0158384	-0.0195963	0
20945.2	-0.0156858	-0.0195956	0
20960.2	-0.0157048	-0.0195957	0
20975.2	-0.0158384	-0.0195961	0
20990.2	-0.0157621	-0.0195959	0
21005.2	-0.0157621	-0.0195954	0
21020.2	-0.0158575	-0.0195961	0
21035.2	-0.0157812	-0.0195954	0
21050.2	-0.0157812	-0.019596	0
21065.2	-0.0159338	-0.0195962	0
21080.2	-0.0157239	-0.0195959	0
21095.2	-0.0157621	-0.0195959	0
21110.2	-0.0158575	-0.0195952	0
21125.2	-0.0157812	-0.0195956	0
21140.2	-0.0158193	-0.0195954	0
21155.2	-0.0158384	-0.0195962	0
21170.2	-0.0158575	-0.0195958	0
21185.2	-0.0158193	-0.0195962	0
21200.2	-0.0159148	-0.0195956	0
21215.2	-0.0157621	-0.019596	0
21230.2	-0.0159338	-0.0195955	0
21245.2	-0.0158575	-0.0195962	0
21260.2	-0.0158766	-0.0195957	0
21275.2	-0.0158193	-0.0195957	0
21290.2	-0.0158957	-0.0195954	0
21305.2	-0.0157239	-0.0195952	0
21320.2	-0.0159529	-0.0195957	0
21335.2	-0.0158957	-0.0195956	0
21350.2	-0.0159529	-0.0195959	0
21365.2	-0.0158384	-0.0195953	0
21380.2	-0.0159148	-0.0195959	0
21395.2	-0.0158384	-0.0195954	0
21410.2	-0.0158575	-0.0195958	0
21425.2	-0.0158384	-0.0195955	0
21440.2	-0.0157812	-0.0195954	0
21455.2	-0.0158957	-0.0195958	0
21470.2	-0.0158957	-0.0195959	0
21485.2	-0.0159148	-0.0195959	0
21500.2	-0.0158575	-0.0195959	0
21515.2	-0.0158575	-0.0195958	0
21530.2	-0.0158766	-0.0195954	0
21545.2	-0.0158193	-0.0195956	0
21560.2	-0.0158766	-0.0195959	0
21575.2	-0.0158766	-0.0195958	0
21590.2	-0.0159338	-0.0195953	0
21605.2	-0.0158193	-0.0195949	0
21620.2	-0.0158957	-0.0195957	0
21635.2	-0.0158384	-0.0195958	0
21650.2	-0.0159338	-0.0195961	0
21665.2	-0.0159911	-0.0195957	0
21680.2	-0.0159148	-0.0195955	0
21695.2	-0.0158193	-0.0195954	0
21710.2	-0.0159338	-0.019596	0
21725.2	-0.0158003	-0.0195954	0
21740.2	-0.0159148	-0.0195957	0
21755.2	-0.0159911	-0.0195958	0
21770.2	-0.0160483	-0.0195959	0
21785.2	-0.0160483	-0.0195958	0
21800.2	-0.0158575	-0.0195952	0
21815.2	-0.0159148	-0.0195959	0
21830.2	-0.0158957	-0.0195954	0
21845.2	-0.0159148	-0.019596	0
21860.2	-0.0157812	-0.0195959	0
21875.2	-0.0158003	-0.0195959	0
21890.2	-0.0159148	-0.0195959	0
21905.2	-0.0159529	-0.0195954	0
21920.2	-0.0159529	-0.0195956	0
21935.2	-0.0159338	-0.0195951	0
21950.2	-0.0158003	-0.0195958	0
21965.2	-0.0160865	-0.0195956	0
21980.2	-0.015972	-0.0195952	0
21995.2	-0.0160293	-0.0195952	0
22010.2	-0.0160102	-0.0195956	0
22025.2	-0.0158003	-0.0195958	0
22040.2	-0.0158957	-0.0195954	0
22055.2	-0.0159529	-0.0195961	0
22070.2	-0.0159911	-0.019595	0
22085.2	-0.0159148	-0.0195956	0
22100.2	-0.0158957	-0.0195959	0
22115.2	-0.0159529	-0.0195959	0
22130.2	-0.0159338	-0.0195958	0
22145.2	-0.0158766	-0.0195964	0
22160.2	-0.0159148	-0.0195958	0
22175.2	-0.0159338	-0.0195958	0
22190.2	-0.0158766	-0.0195958	0
22205.2	-0.0159148	-0.0195956	0
22220.2	-0.0160293	-0.0195956	0
22235.2	-0.0158766	-0.0195957	0
22250.2	-0.0160674	-0.0195961	0
22265.2	-0.0159529	-0.0195961	0
22280.2	-0.0158003	-0.0195957	0
22295.2	-0.0158766	-0.0195958	0
22310.2	-0.015972	-0.0195949	0
22325.2	-0.0159911	-0.0195958	0
22340.2	-0.0159148	-0.0195959	0
22355.2	-0.015972	-0.0195958	0
22370.2	-0.0158957	-0.0195959	0
22385.2	-0.0160293	-0.019596	0
22400.2	-0.015972	-0.0195961	0
22415.2	-0.0158766	-0.019596	0
22430.2	-0.0159338	-0.0195959	0
22445.2	-0.0159148	-0.0195957	0
22460.2	-0.0160102	-0.0195955	0
22475.2	-0.015972	-0.0195956	0
22490.2	-0.0158957	-0.0195959	0
22505.2	-0.0158957	-0.0195958	0
22520.2	-0.0158384	-0.0195958	0
22535.2	-0.0160102	-0.0195955	0
22550.2	-0.0158766	-0.0195963	0
22565.2	-0.0158766	-0.0195956	0
22580.2	-0.0158575	-0.019595	0
22595.2	-0.0159148	-0.0195959	0
22610.2	-0.0159911	-0.0195956	0
22625.2	-0.0159338	-0.0195958	0
22640.2	-0.0159529	-0.0195951	0
22655.2	-0.0158384	-0.0195959	0
22670.2	-0.0158957	-0.0195957	0
22685.2	-0.0159148	-0.0195961	0
22700.2	-0.0159338	-0.0195962	0
22715.2	-0.0158766	-0.0195957	0
22730.2	-0.0158575	-0.0195956	0
22745.2	-0.0159911	-0.0195949	0
22760.2	-0.0158766	-0.0195958	0
22775.2	-0.0159529	-0.0195956	0
22790.2	-0.0158193	-0.0195955	0
22805.2	-0.0158003	-0.0195955	0
22820.2	-0.0159338	-0.0195961	0
22835.2	-0.0158384	-0.0195952	0
22850.2	-0.0158193	-0.0195953	0
22865.2	-0.0158766	-0.0195959	0
22880.2	-0.0159148	-0.0195959	0
22895.2	-0.0158003	-0.0195958	0
22910.2	-0.0158957	-0.0195956	0
22925.2	-0.0158384	-0.0195955	0
22940.2	-0.0159529	-0.019596	0
22955.2	-0.0158957	-0.0195958	0
22970.2	-0.0157812	-0.0195956	0
22985.2	-0.0159911	-0.0195958	0
23000.2	-0.0157239	-0.0195956	0
23015.2	-0.0158193	-0.0195954	0
23030.2	-0.0158384	-0.0195956	0
23045.2	-0.0158384	-0.0195953	0
23060.2	-0.0158003	-0.0195958	0
23075.2	-0.0158003	-0.0195954	0
23090.2	-0.0157621	-0.0195961	0
23105.2	-0.0158575	-0.0195955	0
23120.2	-0.0158384	-0.0195952	0
23135.2	-0.0158193	-0.0195958	0
23150.2	-0.0159148	-0.0195959	0
23165.2	-0.0159338	-0.0195959	0
23180.2	-0.0159338	-0.0195963	0
23195.2	-0.0158003	-0.0195955	0
23210.2	-0.0158575	-0.0195955	0
23225.2	-0.0159529	-0.0195956	0
23240.2	-0.0158193	-0.0195955	0
23255.2	-0.015743	-0.0195955	0
23270.2	-0.0158193	-0.0195959	0
23285.2	-0.0158193	-0.0195958	0
23300.2	-0.0158384	-0.0195952	0
23315.2	-0.015743	-0.0195959	0
23330.2	-0.0159148	-0.0195954	0
23345.2	-0.0158766	-0.0195954	0
23360.2	-0.0157239	-0.019596	0
23375.2	-0.0157048	-0.0195959	0
23390.2	-0.0157621	-0.0195952	0
23405.2	-0.0157812	-0.0195958	0
23420.2	-0.0158384	-0.0195963	0
23435.2	-0.0158193	-0.0195952	0
23450.2	-0.0158003	-0.0195959	0
23465.2	-0.0157812	-0.0195958	0
23480.2	-0.0157812	-0.0195956	0
23495.2	-0.0156858	-0.0195957	0
23510.2	-0.0158193	-0.0195954	0
23525.2	-0.0158003	-0.0195954	0
23540.2	-0.0158193	-0.0195957	0
23555.2	-0.0156858	-0.0195955	0
23570.2	-0.0159529	-0.0195953	0
23585.2	-0.0158003	-0.0195956	0
23600.2	-0.0158003	-0.0195958	0
23615.2	-0.0156858	-0.0195954	0
23630.2	-0.0157621	-0.0195954	0
23645.2	-0.0158003	-0.0195953	0
23660.2	-0.0158193	-0.0195953	0
23675.2	-0.0158766	-0.0195954	0
23690.2	-0.015743	-0.019596	0
23705.2	-0.0158575	-0.0195956	0
23720.2	-0.0159338	-0.0195954	0
23735.2	-0.0158384	-0.0195958	0
23750.2	-0.0157621	-0.0195958	0
23765.2	-0.0156667	-0.0195952	0
23780.2	-0.0158003	-0.0195956	0
23795.2	-0.0158575	-0.0195958	0
23810.2	-0.0158003	-0.0195954	0
23825.2	-0.0159148	-0.0195952	0
23840.2	-0.0158384	-0.0195956	0
23855.2	-0.015743	-0.0195956	0
23870.2	-0.0157239	-0.0195955	0
23885.2	-0.0158003	-0.0195961	0
23900.2	-0.0158957	-0.0195959	0
23915.2	-0.0158766	-0.0195958	0
23930.2	-0.015743	-0.0195952	0
23945.2	-0.0158575	-0.0195958	0
23960.2	-0.0157048	-0.0195958	0
23975.2	-0.0158193	-0.0195958	0
23990.2	-0.0158003	-0.0195956	0
24005.2	-0.0158003	-0.0195956	0
24020.2	-0.0158575	-0.0195954	0
24035.2	-0.0157812	-0.0195958	0
24050.2	-0.0158384	-0.0195954	0
24065.2	-0.0157621	-0.019596	0
24080.2	-0.015743	-0.0195961	0
24095.2	-0.0157048	-0.0195958	0
24110.2	-0.0157239	-0.0195954	0
24125.2	-0.0157621	-0.0195954	0
24140.2	-0.0158003	-0.0195954	0
24155.2	-0.0156667	-0.0195957	0
24170.2	-0.015743	-0.0195958	0
24185.2	-0.0157621	-0.0195956	0
24200.2	-0.0156285	-0.019596	0
24215.2	-0.0156858	-0.0195957	0
24230.2	-0.015743	-0.0195957	0
24245.2	-0.0157812	-0.019596	0
24260.2	-0.0156858	-0.0195958	0
24275.2	-0.0157621	-0.0195963	0
24290.2	-0.0157812	-0.0195958	0
24305.2	-0.0157621	-0.0195956	0
24320.2	-0.0157048	-0.0195963	0
24335.2	-0.0156858	-0.0195956	0
24350.2	-0.0158003	-0.019596	0
24365.2	-0.0157048	-0.0195965	0
24380.2	-0.0158384	-0.0195957	0
24395.2	-0.0157239	-0.0195958	0
24410.2	-0.015743	-0.0195957	0
24425.2	-0.0156476	-0.0195957	0
24440.2	-0.0156667	-0.0195954	0
24455.2	-0.0156858	-0.019596	0
24470.2	-0.0156667	-0.0195952	0
24485.2	-0.0157621	-0.0195952	0
24500.2	-0.0158384	-0.0195952	0
24515.2	-0.0157621	-0.0195958	0
24530.2	-0.0157621	-0.0195955	0
24545.2	-0.0157621	-0.0195958	0
24560.2	-0.0157812	-0.0195952	0
24575.2	-0.0156858	-0.0195959	0
24590.2	-0.0156667	-0.0195954	0
24605.2	-0.0156094	-0.0195959	0
24620.2	-0.0156858	-0.0195959	0
24635.2	-0.0156476	-0.0195959	0
24650.2	-0.0157239	-0.0195954	0
24665.2	-0.0157048	-0.0195952	0
24680.2	-0.0157239	-0.0195958	0
24695.2	-0.0155903	-0.019596	0
24710.2	-0.0157812	-0.0195951	0
24725.2	-0.0156667	-0.0195959	0
24740.2	-0.0158003	-0.0195951	0
24755.2	-0.0157239	-0.0195957	0
24770.2	-0.0157048	-0.0195955	0
24785.2	-0.0156476	-0.0195952	0
24800.2	-0.0157239	-0.0195954	0
24815.2	-0.0156285	-0.0195959	0
24830.2	-0.015743	-0.0195954	0
24845.2	-0.0155331	-0.0195956	0
24860.2	-0.0157239	-0.0195956	0
24875.2	-0.0157048	-0.0195956	0
24890.2	-0.0157239	-0.0195953	0
24905.2	-0.0156858	-0.0195956	0
24920.2	-0.0156094	-0.0195959	0
24935.2	-0.0157239	-0.0195959	0
24950.2	-0.0156667	-0.0195957	0
24965.2	-0.0156476	-0.0195959	0
24980.2	-0.0155713	-0.0195954	0
24995.2	-0.0157048	-0.0195953	0
25010.2	-0.0156094	-0.0195952	0
25025.2	-0.0156285	-0.0195952	0
25040.2	-0.0156094	-0.0195959	0
25055.2	-0.0157048	-0.0195957	0
25070.2	-0.0156858	-0.0195958	0
25085.2	-0.0155903	-0.0195953	0
25100.2	-0.0155713	-0.0195957	0
25115.2	-0.0157048	-0.0195954	0
25130.2	-0.0156476	-0.019595	0
25145.2	-0.0156858	-0.0195955	0
25160.2	-0.0156285	-0.0195953	0
25175.2	-0.0156285	-0.0195963	0
25190.2	-0.0156094	-0.0195958	0
25205.2	-0.0156667	-0.0195959	0
25220.2	-0.0156094	-0.0195958	0
25235.2	-0.0155903	-0.0195961	0
25250.2	-0.0155713	-0.0195954	0
25265.2	-0.0156476	-0.0195957	0
25280.2	-0.0157812	-0.0195959	0
25295.2	-0.0156285	-0.0195951	0
25310.2	-0.0156858	-0.0195956	0
25325.2	-0.0156285	-0.0195962	0
25340.2	-0.0156094	-0.0195958	0
25355.2	-0.0156667	-0.0195958	0
25370.2	-0.0156476	-0.0195953	0
25385.2	-0.0155331	-0.0195958	0
25400.2	-0.0156667	-0.0195954	0
25415.2	-0.0156858	-0.0195958	0
25430.2	-0.0156285	-0.0195961	0
25445.2	-0.0155903	-0.0195956	0
25460.2	-0.0155903	-0.0195956	0
25475.2	-0.015514	-0.0195958	0
25490.2	-0.0155713	-0.0195959	0
25505.2	-0.0157621	-0.019596	0
25520.2	-0.0156285	-0.0195958	0
25535.2	-0.0156667	-0.0195958	0
25550.2	-0.0156285	-0.0195959	0
25565.2	-0.0156476	-0.0195958	0
25580.2	-0.0156285	-0.0195959	0
25595.2	-0.0157239	-0.0195956	0
25610.2	-0.0156094	-0.0195958	0
25625.2	-0.0156285	-0.0195952	0
25640.2	-0.0156476	-0.0195956	0
25655.2	-0.0156667	-0.0195957	0
25670.2	-0.0155903	-0.0195952	0
25685.2	-0.0155903	-0.0195958	0
25700.2	-0.0155713	-0.0195961	0
25715.2	-0.0156094	-0.0195958	0
25730.2	-0.0156858	-0.0195955	0
25745.2	-0.0156285	-0.0195956	0
25760.2	-0.0156667	-0.0195957	0
25775.2	-0.0156858	-0.0195955	0
25790.2	-0.0156285	-0.0195962	0
25805.2	-0.0156667	-0.0195953	0
25820.2	-0.0156476	-0.0195947	0
25835.2	-0.0156285	-0.0195953	0
25850.2	-0.0156858	-0.0195958	0
25865.2	-0.0156667	-0.0195956	0
25880.2	-0.0156858	-0.0195957	0
25895.2	-0.015743	-0.0195959	0
25910.2	-0.0156667	-0.0195949	0
25925.2	-0.0156667	-0.0195958	0
25940.2	-0.0157812	-0.0195952	0
25955.2	-0.0155903	-0.0195962	0
25970.2	-0.0156476	-0.0195956	0
25985.2	-0.0156667	-0.0195958	0
26000.2	-0.0156667	-0.0195954	0
26015.2	-0.0155903	-0.0195958	0
26030.2	-0.0156094	-0.0195956	0
26045.2	-0.0156858	-0.0195956	0
26060.2	-0.0156094	-0.0195957	0
26075.2	-0.0156094	-0.0195953	0
26090.2	-0.0156667	-0.0195959	0
26105.2	-0.0158003	-0.0195957	0
26120.2	-0.0157239	-0.0195948	0
26135.2	-0.0155713	-0.0195952	0
26150.2	-0.015743	-0.0195956	0
26165.2	-0.0157048	-0.0195959	0
26180.2	-0.0155713	-0.0195954	0
26195.2	-0.0156476	-0.0195953	0
26210.2	-0.0156285	-0.0195955	0
26225.2	-0.0155522	-0.0195954	0
26240.2	-0.0156667	-0.0195957	0
26255.2	-0.0157048	-0.0195965	0
26270.2	-0.0156667	-0.0195955	0
26285.2	-0.0156667	-0.0195958	0
26300.2	-0.0156667	-0.0195956	0
26315.2	-0.015743	-0.0195961	0
26330.2	-0.0157048	-0.0195957	0
26345.2	-0.0157621	-0.0195958	0
26360.2	-0.0156858	-0.0195956	0
26375.2	-0.0156858	-0.0195959	0
26390.2	-0.0157048	-0.0195958	0
26405.2	-0.0156858	-0.0195958	0
26420.2	-0.0156094	-0.0195954	0
26435.2	-0.0157048	-0.019596	0
26450.2	-0.0156285	-0.0195953	0
26465.2	-0.015743	-0.0195956	0
26480.2	-0.0156285	-0.0195955	0
26495.2	-0.0157239	-0.0195956	0
26510.2	-0.0156476	-0.0195952	0
26525.2	-0.015743	-0.0195956	0
26540.2	-0.0157048	-0.0195957	0
26555.2	-0.0157048	-0.0195961	0
26570.2	-0.0155713	-0.0195955	0
26585.2	-0.0156858	-0.0195958	0
26600.2	-0.0156094	-0.0195956	0
26615.2	-0.0157621	-0.0195961	0
26630.2	-0.0155713	-0.0195958	0
26645.2	-0.015743	-0.0195955	0
26660.2	-0.0156858	-0.0195961	0
26675.2	-0.0156667	-0.0195963	0
26690.2	-0.0155903	-0.0195959	0
26705.2	-0.0157812	-0.0195954	0
26720.2	-0.0157048	-0.0195954	0
26735.2	-0.0156094	-0.019596	0
26750.2	-0.0155522	-0.0195959	0
26765.2	-0.0155331	-0.0195956	0
26780.2	-0.0157239	-0.0195961	0
26795.2	-0.0157239	-0.0195954	0
26810.2	-0.0157239	-0.0195951	0
26825.2	-0.0156476	-0.0195956	0
26840.2	-0.0156667	-0.0195955	0
26855.2	-0.0156094	-0.0195955	0
26870.2	-0.0156094	-0.0195952	0
26885.2	-0.0156094	-0.0195955	0
26900.2	-0.0157621	-0.0195955	0
26915.2	-0.0156476	-0.0195951	0
26930.2	-0.0155522	-0.0195953	0
26945.2	-0.0156476	-0.0195958	0
26960.2	-0.0156094	-0.0195956	0
26975.2	-0.0156094	-0.0195958	0
26990.2	-0.0156667	-0.0195956	0
27005.2	-0.0156285	-0.0195958	0
27020.2	-0.015514	-0.0195959	0
27035.2	-0.0156285	-0.0195955	0
27050.2	-0.0156476	-0.0195959	0
27065.2	-0.0156476	-0.0195954	0
27080.2	-0.0156094	-0.0195956	0
27095.2	-0.0157048	-0.0195958	0
27110.2	-0.0157239	-0.0195954	0
27125.2	-0.0156667	-0.0195955	0
27140.2	-0.0156858	-0.0195954	0
27155.2	-0.0155903	-0.0195957	0
27170.2	-0.0157239	-0.0195958	0
27185.2	-0.0157239	-0.0195961	0
27200.2	-0.0155331	-0.0195959	0
27215.2	-0.0155713	-0.0195955	0
27230.2	-0.0155522	-0.0195951	0
27245.2	-0.0156858	-0.0195955	0
27260.2	-0.0155522	-0.0195957	0
27275.2	-0.0156476	-0.0195958	0
27290.2	-0.0156094	-0.0195959	0
27305.2	-0.0157239	-0.0195957	0
27320.2	-0.015743	-0.0195955	0
27335.2	-0.0157812	-0.0195959	0
27350.2	-0.0155522	-0.0195955	0
27365.2	-0.0156094	-0.0195955	0
27380.2	-0.0156094	-0.0195956	0
27395.2	-0.0157812	-0.0195963	0
27410.2	-0.0155522	-0.0195953	0
27425.2	-0.0156285	-0.0195952	0
27440.2	-0.015743	-0.0195954	0
27455.2	-0.0156285	-0.0195959	0
27470.2	-0.0156667	-0.0195951	0
27485.2	-0.0156094	-0.0195954	0
27500.2	-0.0156667	-0.0195958	0
27515.2	-0.0156094	-0.0195953	0
27530.2	-0.0157239	-0.0195954	0
27545.2	-0.0156094	-0.0195951	0
27560.2	-0.0156476	-0.0195956	0
27575.2	-0.0157048	-0.0195957	0
27590.2	-0.0156667	-0.0195953	0
27605.2	-0.0155713	-0.0195957	0
27620.2	-0.0156476	-0.0195954	0
27635.2	-0.0156094	-0.0195955	0
27650.2	-0.0156094	-0.0195953	0
27665.2	-0.0157239	-0.0195955	0
27680.2	-0.0156285	-0.0195949	0
27695.2	-0.0157048	-0.0195955	0
27710.2	-0.0156476	-0.0195957	0
27725.2	-0.0157812	-0.0195953	0
27740.2	-0.0157239	-0.0195956	0
27755.2	-0.0156285	-0.0195955	0
27770.2	-0.015743	-0.019596	0
27785.2	-0.015514	-0.0195958	0
27800.2	-0.0156476	-0.0195958	0
27815.2	-0.0155713	-0.0195954	0
27830.2	-0.0156094	-0.0195954	0
27845.2	-0.0156667	-0.0195956	0
27860.2	-0.0157048	-0.0195957	0
27875.2	-0.0156094	-0.0195953	0
27890.2	-0.0157048	-0.0195955	0
27905.2	-0.0156094	-0.0195952	0
27920.2	-0.0155903	-0.0195954	0
27935.2	-0.0156476	-0.0195956	0
27950.2	-0.0156667	-0.0195956	0
27965.2	-0.0156285	-0.0195957	0
27980.2	-0.015514	-0.0195959	0
27995.2	-0.0156285	-0.0195954	0
28010.2	-0.0157621	-0.0195954	0
28025.2	-0.0156476	-0.0195953	0
28040.2	-0.0156094	-0.0195957	0
28055.2	-0.0155903	-0.0195958	0
28070.2	-0.0156476	-0.0195956	0
28085.2	-0.0156858	-0.0195954	0
28100.2	-0.0157048	-0.0195958	0
28115.2	-0.0156285	-0.0195958	0
28130.2	-0.0156858	-0.0195959	0
28145.2	-0.0155522	-0.0195959	0
28160.2	-0.0155331	-0.0195952	0
28175.2	-0.0155331	-0.0195958	0
28190.2	-0.0155331	-0.0195956	0
28205.2	-0.0156285	-0.0195957	0
28220.2	-0.0154568	-0.0195959	0
28235.2	-0.0154949	-0.0195954	0
28250.2	-0.0155522	-0.0195956	0
28265.2	-0.0155522	-0.0195953	0
28280.2	-0.0157239	-0.0195959	0
28295.2	-0.0155903	-0.0195956	0
28310.2	-0.0156094	-0.0195957	0
28325.2	-0.0155713	-0.0195952	0
28340.2	-0.0156094	-0.019596	0
28355.2	-0.0154949	-0.0195956	0
28370.2	-0.0155903	-0.0195955	0
28385.2	-0.0155903	-0.0195955	0
28400.2	-0.0155522	-0.0195956	0
28415.2	-0.0156858	-0.0195953	0
28430.2	-0.0156094	-0.0195947	0
28445.2	-0.015514	-0.0195958	0
28460.2	-0.0156285	-0.0195956	0
28475.2	-0.0156667	-0.0195956	0
28490.2	-0.0155713	-0.0195956	0
28505.2	-0.0156476	-0.0195957	0
28520.2	-0.0155522	-0.0195953	0
28535.2	-0.0156667	-0.0195957	0
28550.2	-0.0154949	-0.0195953	0
28565.2	-0.0155903	-0.0195951	0
28580.2	-0.0155713	-0.0195956	0
28595.2	-0.0156285	-0.0195958	0
28610.2	-0.0156285	-0.0195954	0
28625.2	-0.0155713	-0.0195955	0
28640.2	-0.0156094	-0.019596	0
28655.2	-0.0155903	-0.0195956	0
28670.2	-0.0156094	-0.0195959	0
28685.2	-0.0155331	-0.0195958	0
28700.2	-0.0156476	-0.0195953	0
28715.2	-0.0156667	-0.0195955	0
28730.2	-0.0155522	-0.0195956	0
28745.2	-0.0157048	-0.0195959	0
28760.2	-0.0154568	-0.0195951	0
28775.2	-0.0155713	-0.0195956	0
28787.9	-0.0156094	-0.0195956	0