File: EXPERIMENTAL/Data/Battery-cycling/JP-measurements/C-cell/2024-04-23_JP-measurements_sample-A8-02_C-cell_Cu-Li-Cellgard2400-separator_25muL-LiFSI-in-DME_outside-glovebox_sigma-0.02_added-OCV-0.1s_02_MB_C11.txt
time/s	Ewe/V	I/mA	error
60.053	2.92592	-0.025006	0
60.1732	0.00898467	-16.0848	0
60.1736	0.00904193	-16.0142	0
60.174	0.00900376	-15.943	0
60.1744	0.0090992	-15.8603	0
60.1748	0.00904193	-15.7922	0
60.1752	0.00898467	-15.7267	0
60.1756	0.00896558	-15.6567	0
60.176	0.00906102	-15.5873	0
60.1764	0.00898467	-15.5167	0
60.1768	0.00911828	-15.4461	0
60.1772	0.0090992	-15.3774	0
60.1776	0.00908011	-15.3119	0
60.178	0.00896558	-15.2464	0
60.1784	0.00906102	-15.1777	0
60.1788	0.00900376	-15.1083	0
60.1792	0.00906102	-15.0473	0
60.1796	0.00898467	-14.9735	0
60.18	0.00902284	-14.9105	0
60.1804	0.0090992	-14.8526	0
60.1808	0.00906102	-14.7852	0
60.1812	0.00896558	-14.719	0
60.1816	0.00894649	-14.663	0
60.182	0.00898467	-14.6026	0
60.1824	0.00898467	-14.5447	0
60.1828	0.00906102	-14.4671	0
60.1832	0.00888923	-14.4092	0
60.1836	0.00890832	-14.3488	0
60.184	0.00908011	-14.282	0
60.1846	0.00885106	-14.1986	0
60.185	0.00900376	-14.1363	0
60.1854	0.00900376	-14.0765	0
60.1858	0.00894649	-14.0218	0
60.1862	0.00902284	-13.9626	0
60.1866	0.00898467	-13.9041	0
60.187	0.00894649	-13.8443	0
60.1874	0.00898467	-13.7896	0
60.1878	0.00902284	-13.7285	0
60.1882	0.00900376	-13.6782	0
60.1886	0.00898467	-13.6159	0
60.189	0.00906102	-13.5618	0
60.1894	0.00900376	-13.5014	0
60.1898	0.00900376	-13.4499	0
60.1904	0.00898467	-13.371	0
60.1908	0.00896558	-13.3182	0
60.1912	0.00896558	-13.2628	0
60.1916	0.00894649	-13.2075	0
60.192	0.00900376	-13.1541	0
60.1924	0.00904193	-13.1038	0
60.1928	0.00898467	-13.0497	0
60.1932	0.00894649	-12.9912	0
60.1938	0.00904193	-12.9168	0
60.1942	0.00902284	-12.8646	0
60.1948	0.00900376	-12.7883	0
60.1954	0.00902284	-12.7132	0
60.196	0.00892741	-12.6426	0
60.1964	0.0090992	-12.5911	0
60.1968	0.00906102	-12.5408	0
60.1974	0.00908011	-12.4702	0
60.198	0.00900376	-12.3945	0
60.1984	0.0090992	-12.3423	0
60.199	0.00904193	-12.2723	0
60.1996	0.00902284	-12.1935	0
60.2002	0.00900376	-12.1356	0
60.2008	0.00900376	-12.0548	0
60.2014	0.00902284	-11.9924	0
60.202	0.00898467	-11.9263	0
60.2024	0.00908011	-11.8748	0
60.203	0.00902284	-11.8137	0
60.2036	0.00904193	-11.7482	0
60.204	0.00908011	-11.6973	0
60.2046	0.00902284	-11.6298	0
60.2052	0.00887014	-11.5643	0
60.2058	0.00904193	-11.509	0
60.2064	0.00892741	-11.4377	0
60.207	0.00896558	-11.376	0
60.2076	0.00908011	-11.3086	0
60.2082	0.00898467	-11.2475	0
60.2088	0.00917555	-11.1877	0
60.2094	0.00898467	-11.1209	0
60.21	0.00902284	-11.0668	0
60.2106	0.00898467	-11.0039	0
60.2112	0.00902284	-10.9422	0
60.2118	0.00900376	-10.8817	0
60.2124	0.00911828	-10.8257	0
60.213	0.00896558	-10.7628	0
60.2136	0.00915646	-10.7049	0
60.2142	0.00898467	-10.6514	0
60.2148	0.00900376	-10.5891	0
60.2156	0.00894649	-10.5166	0
60.2162	0.00898467	-10.465	0
60.2168	0.00906102	-10.4046	0
60.2174	0.00898467	-10.3499	0
60.2182	0.00906102	-10.2774	0
60.2188	0.00892741	-10.2271	0
60.2194	0.00906102	-10.1654	0
60.2202	0.00904193	-10.0999	0
60.221	0.00900376	-10.035	0
60.2216	0.00898467	-9.97774	0
60.2222	0.00915646	-9.92558	0
60.2228	0.00906102	-9.87278	0
60.2236	0.0090992	-9.81171	0
60.2242	0.00902284	-9.76081	0
60.2248	0.00906102	-9.70611	0
60.2256	0.00894649	-9.64567	0
60.2262	0.00904193	-9.58905	0
60.227	0.00906102	-9.52735	0
60.2278	0.00906102	-9.46882	0
60.2286	0.00898467	-9.4033	0
60.2294	0.00898467	-9.34095	0
60.2302	0.00896558	-9.27861	0
60.231	0.00894649	-9.22199	0
60.2318	0.00896558	-9.15456	0
60.2326	0.00906102	-9.10112	0
60.2334	0.00915646	-9.04769	0
60.2342	0.00902284	-8.98089	0
60.235	0.00902284	-8.91982	0
60.2358	0.00894649	-8.86702	0
60.2366	0.00892741	-8.80404	0
60.2374	0.0090992	-8.75315	0
60.2382	0.00904193	-8.69589	0
60.239	0.00898467	-8.63991	0
60.2398	0.00900376	-8.58329	0
60.2408	0.00904193	-8.5165	0
60.2416	0.00900376	-8.46561	0
60.2426	0.00894649	-8.39817	0
60.2434	0.00908011	-8.34665	0
60.2444	0.00902284	-8.2843	0
60.2452	0.00888923	-8.23405	0
60.246	0.0090992	-8.18315	0
60.247	0.00900376	-8.12526	0
60.248	0.00900376	-8.06865	0
60.2488	0.00904193	-8.0133	0
60.2498	0.00898467	-7.95478	0
60.2506	0.00894649	-7.9007	0
60.2516	0.0090992	-7.84218	0
60.2528	0.00908011	-7.77792	0
60.2538	0.00904193	-7.71622	0
60.2548	0.00904193	-7.66214	0
60.2558	0.00906102	-7.60616	0
60.2568	0.00908011	-7.55209	0
60.2578	0.00900376	-7.4942	0
60.2588	0.00902284	-7.4414	0
60.26	0.00892741	-7.37969	0
60.2612	0.00900376	-7.3218	0
60.2622	0.00900376	-7.27027	0
60.2632	0.00904193	-7.2162	0
60.2644	0.00902284	-7.1475	0
60.2658	0.00898467	-7.0877	0
60.267	0.00898467	-7.02408	0
60.2682	0.00902284	-6.97255	0
60.2694	0.00911828	-6.91212	0
60.2706	0.00904193	-6.85296	0
60.272	0.00908011	-6.79443	0
60.2732	0.00906102	-6.73463	0
60.2744	0.00902284	-6.68056	0
60.2758	0.00900376	-6.61885	0
60.2772	0.00904193	-6.56669	0
60.2784	0.00898467	-6.51071	0
60.2796	0.00900376	-6.45663	0
60.281	0.00908011	-6.39938	0
60.2824	0.0090992	-6.34085	0
60.284	0.0090992	-6.2836	0
60.2854	0.00900376	-6.22571	0
60.2866	0.00896558	-6.17355	0
60.2882	0.00898467	-6.12074	0
60.2896	0.00904193	-6.06985	0
60.2908	0.00896558	-6.01769	0
60.2924	0.00902284	-5.96298	0
60.2938	0.00904193	-5.90763	0
60.2954	0.0090992	-5.8561	0
60.2968	0.00896558	-5.80521	0
60.2984	0.00906102	-5.7505	0
60.3002	0.00896558	-5.69007	0
60.3018	0.00906102	-5.63981	0
60.3034	0.00900376	-5.58447	0
60.305	0.00900376	-5.53421	0
60.3068	0.00902284	-5.47696	0
60.3084	0.00900376	-5.42288	0
60.3104	0.00902284	-5.36945	0
60.3122	0.00915646	-5.31347	0
60.314	0.00904193	-5.26321	0
60.316	0.00894649	-5.20468	0
60.318	0.00898467	-5.15188	0
60.3196	0.00898467	-5.09972	0
60.3216	0.00911828	-5.0431	0
60.324	0.00896558	-4.98585	0
60.326	0.00898467	-4.93241	0
60.3284	0.00908011	-4.87579	0
60.3308	0.00887014	-4.81345	0
60.3332	0.00908011	-4.75429	0
60.3354	0.00902284	-4.70149	0
60.3378	0.00896558	-4.65123	0
60.3398	0.00908011	-4.59716	0
60.3422	0.00900376	-4.53927	0
60.345	0.00902284	-4.48837	0
60.3474	0.0090992	-4.43494	0
60.35	0.00904193	-4.38341	0
60.3526	0.0090992	-4.32743	0
60.3556	0.00896558	-4.27145	0
60.3586	0.0090992	-4.21737	0
60.3614	0.00904193	-4.16712	0
60.3642	0.00898467	-4.11368	0
60.367	0.00902284	-4.05961	0
60.37	0.00896558	-4.00871	0
60.4034	0.00898467	-3.54785	0
60.4074	0.00900376	-3.49588	0
60.4116	0.00898467	-3.44322	0
60.4158	0.00900376	-3.39239	0
60.4202	0.00900376	-3.34036	0
60.4248	0.00898467	-3.28865	0
60.4294	0.00902284	-3.23776	0
60.4342	0.00921372	-3.18687	0
60.4392	0.00892741	-3.1351	0
60.4442	0.00898467	-3.08472	0
60.4494	0.00900376	-3.03441	0
60.4548	0.00904193	-2.9839	0
60.4604	0.00906102	-2.9334	0
60.4662	0.00900376	-2.88257	0
60.4722	0.00892741	-2.83245	0
60.4786	0.00906102	-2.78118	0
60.4852	0.00904193	-2.73029	0
60.492	0.00904193	-2.67883	0
60.499	0.00900376	-2.62801	0
60.5062	0.00908011	-2.57789	0
60.5138	0.00896558	-2.52649	0
60.5218	0.00908011	-2.47592	0
60.53	0.00906102	-2.42542	0
60.5386	0.00902284	-2.37485	0
60.5474	0.00904193	-2.32466	0
60.5568	0.00913737	-2.27422	0
60.5666	0.00900376	-2.22365	0
60.577	0.00904193	-2.17238	0
60.5876	0.00902284	-2.12201	0
60.5988	0.00896558	-2.07163	0
60.6108	0.00898467	-2.02119	0
60.6232	0.00902284	-1.97075	0
60.6364	0.00906102	-1.92018	0
60.6502	0.00898467	-1.87005	0
60.6648	0.00896558	-1.81904	0
60.6804	0.00900376	-1.76892	0
60.6968	0.00906102	-1.7186	0
60.7142	0.00900376	-1.66803	0
60.733	0.0090992	-1.61766	0
60.753	0.00908011	-1.56677	0
60.7748	0.0090992	-1.51658	0
60.7978	0.00906102	-1.46595	0
60.8232	0.00906102	-1.41545	0
60.8504	0.00908011	-1.36539	0
60.8794	0.00906102	-1.31526	0
60.912	0.00900376	-1.26469	0
60.9478	0.00906102	-1.21387	0
60.9872	0.00904193	-1.16362	0
61.0312	0.00902284	-1.11267	0
61.0806	0.00890832	-1.06153	0
61.1358	0.00896558	-1.01115	0
61.1982	0.00898467	-0.961027	0
61.2684	0.00906102	-0.91084	0
61.3496	0.00904193	-0.860589	0
61.4424	0.00906102	-0.810211	0
61.5516	0.00900376	-0.760151	0
61.6804	0.00902284	-0.709964	0
61.833	0.00906102	-0.659714	0
62.0238	0.00900376	-0.60959	0
62.254	0.00898467	-0.55934	0
62.5448	0.00906102	-0.508898	0
62.9256	0.00896558	-0.458838	0
63.4846	0.00919464	-0.408721	0
64.2368	0.00908011	-0.358654	0
65.0528	0.00902284	-0.321459	0
65.0534	0.00908011	-0.320594	0
66.7408	0.00902284	-0.270546	0
69.7416	0.00904193	-0.220542	0
75.8482	0.00906102	-0.170494	0
85.8482	0.00904193	-0.131759	0
95.8482	0.00896558	-0.110095	0
105.848	0.00904193	-0.0958869	0
115.848	0.00904193	-0.0848797	0
125.848	0.00906102	-0.076462	0
135.848	0.00908011	-0.0690496	0
145.848	0.00902284	-0.0628461	0
155.848	0.00913737	-0.0576797	0
165.848	0.00900376	-0.0538368	0
175.848	0.00898467	-0.0501846	0
185.848	0.00913737	-0.0469779	0
195.848	0.00887014	-0.0445663	0
205.848	0.00908011	-0.0422324	0
215.848	0.00921372	-0.0400187	0
225.848	0.00900376	-0.0380703	0
235.848	0.0090992	-0.0362873	0
245.848	0.00900376	-0.0347364	0
255.848	0.00900376	-0.0333357	0
265.848	0.00915646	-0.0318644	0
275.848	0.00906102	-0.030624	0
285.848	0.00900376	-0.0294535	0
295.848	0.00902284	-0.0284339	0
305.848	0.00894649	-0.0274574	0
315.848	0.00906102	-0.0264804	0
325.848	0.00902284	-0.0255663	0
335.848	0.00906102	-0.0247756	0
345.848	0.0090992	-0.0240657	0
355.848	0.00904193	-0.023275	0
365.848	0.00902284	-0.0225333	0
375.848	0.00898467	-0.0217801	0
385.848	0.00902284	-0.0213412	0
395.848	0.00906102	-0.020693	0
405.848	0.00894649	-0.020111	0
415.848	0.00900376	-0.0195156	0
425.848	0.00917555	-0.0189933	0
435.848	0.00913737	-0.0185811	0
445.848	0.00904193	-0.0180945	0
455.848	0.00896558	-0.0175862	0
465.848	0.0090992	-0.0171588	0
475.848	0.00898467	-0.016849	0
485.848	0.00898467	-0.0163465	0
495.848	0.00902284	-0.0160322	0
505.848	0.00906102	-0.0157263	0
515.848	0.00908011	-0.0152447	0
525.848	0.00908011	-0.014926	0
535.848	0.00896558	-0.0145991	0
545.848	0.00898467	-0.014246	0
555.848	0.00911828	-0.0139884	0
565.848	0.00908011	-0.0136214	0
575.848	0.00904193	-0.0133981	0
585.848	0.00908011	-0.0131029	0
595.848	0.00908011	-0.0128199	0
605.848	0.00904193	-0.0125209	0
615.848	0.00900376	-0.0122817	0
625.848	0.00906102	-0.0120743	0
635.848	0.00900376	-0.01186	0
645.848	0.00898467	-0.0117308	0
655.848	0.00906102	-0.0113142	0
665.848	0.00904193	-0.0112442	0
675.848	0.00908011	-0.010944	0
685.848	0.0090992	-0.0107061	0
695.848	0.00908011	-0.0105229	0
705.848	0.00894649	-0.0104185	0
715.848	0.00902284	-0.0102144	0
725.848	0.00898467	-0.00998154	0
735.848	0.00900376	-0.00983968	0
745.848	0.0090992	-0.00957315	0
755.848	0.00906102	-0.00957697	0
765.848	0.00902284	-0.00933525	0
775.848	0.0090992	-0.00918067	0
785.848	0.00908011	-0.00905727	0
795.848	0.00902284	-0.00882254	0
805.848	0.00900376	-0.00876911	0
815.848	0.00908011	-0.00852611	0
825.848	0.00908011	-0.00843197	0
835.848	0.00902284	-0.00819597	0
845.848	0.00908011	-0.00810882	0
855.848	0.00906102	-0.00813936	0
865.848	0.00898467	-0.00789763	0
875.848	0.0090992	-0.00785311	0
885.848	0.00904193	-0.007661	0
895.848	0.0090992	-0.00748225	0
905.848	0.00906102	-0.00741483	0
915.848	0.00902284	-0.00735249	0
925.848	0.00906102	-0.00716165	0
935.848	0.00900376	-0.00708532	0
945.848	0.00898467	-0.00705733	0
955.848	0.00904193	-0.00691866	0
965.848	0.00906102	-0.00674627	0
975.848	0.00902284	-0.00661269	0
985.848	0.00913737	-0.00659424	0
995.848	0.00911828	-0.00647211	0
1005.85	0.00902284	-0.0063716	0
1015.85	0.00900376	-0.0063627	0
1025.85	0.00894649	-0.00624438	0
1035.85	0.00908011	-0.00622975	0
1045.85	0.0090992	-0.00612288	0
1055.85	0.00894649	-0.00603955	0
1065.85	0.00896558	-0.00600711	0
1075.85	0.00906102	-0.00586589	0
1085.85	0.00908011	-0.00574376	0
1095.85	0.00908011	-0.00570496	0
1105.85	0.00906102	-0.00559618	0
1115.85	0.00902284	-0.00558664	0
1125.85	0.00902284	-0.00540917	0
1135.85	0.00911828	-0.00546769	0
1145.85	0.00906102	-0.00540026	0
1155.85	0.00902284	-0.00520943	0
1165.85	0.00902284	-0.0052794	0
1175.85	0.00902284	-0.00513119	0
1185.85	0.00902284	-0.00506948	0
1195.85	0.00900376	-0.00495753	0
1205.85	0.00896558	-0.0050046	0
1215.85	0.00896558	-0.00492127	0
1225.85	0.00904193	-0.00480486	0
1235.85	0.00904193	-0.00487483	0
1245.85	0.00902284	-0.00476924	0
1255.85	0.00902284	-0.00477178	0
1265.85	0.00902284	-0.00469163	0
1275.85	0.00913737	-0.00456187	0
1285.85	0.0090992	-0.00449762	0
1295.85	0.00906102	-0.00453579	0
1305.85	0.00902284	-0.00452203	0
1315.85	0.00898467	-0.00446209	0
1325.85	0.00896558	-0.00440801	0
1335.85	0.00894649	-0.00433866	0
1345.85	0.00911828	-0.004312	0
1355.85	0.00906102	-0.00426695	0
1365.85	0.00908011	-0.00422229	0
1375.85	0.00915646	-0.0042324	0
1385.85	0.00904193	-0.00414581	0
1395.85	0.00900376	-0.00411482	0
1405.85	0.00898467	-0.00405253	0
1415.85	0.00911828	-0.00402002	0
1425.85	0.00904193	-0.00400291	0
1430.85	0.00902284	-0.00390963	0
1430.85	0.00911828	-0.00392668	0