File: EXPERIMENTAL/Data/Battery-cycling/JP-measurements/C-cell/2024-04-23_JP-measurements_sample-A9-03_C-cell_Cu-Li-Cellgard2400-separator_25muL-LiFSI-in-DME_outside-glovebox_sigma-0.02_added-OCV-0.1_04_CP_C10.txt
time/s	Ewe/V	I/mA	error
245.752	-0.071401	-1.94429	0
245.752	-0.131833	-1.95925	0
245.753	-0.148202	-1.95935	0
245.753	-0.157743	-1.95949	0
245.753	-0.165377	-1.95945	0
245.753	-0.172094	-1.95952	0
245.753	-0.178296	-1.95952	0
245.754	-0.184021	-1.9595	0
245.754	-0.189403	-1.9595	0
245.754	-0.194556	-1.95952	0
245.754	-0.199441	-1.95959	0
245.754	-0.204078	-1.95956	0
245.755	-0.208677	-1.95951	0
245.755	-0.212914	-1.95951	0
245.755	-0.217112	-1.95949	0
245.755	-0.221139	-1.95954	0
245.755	-0.225166	-1.95957	0
245.756	-0.228925	-1.95957	0
245.756	-0.232627	-1.95952	0
245.756	-0.236196	-1.95957	0
245.756	-0.239688	-1.95954	0
245.756	-0.243009	-1.95957	0
245.757	-0.246234	-1.95959	0
245.757	-0.249554	-1.95957	0
245.757	-0.252684	-1.95959	0
245.757	-0.255642	-1.95956	0
245.757	-0.258733	-1.95951	0
245.758	-0.261539	-1.95953	0
245.758	-0.264363	-1.95954	0
245.758	-0.267264	-1.95956	0
245.758	-0.269897	-1.95956	0
245.758	-0.272779	-1.95957	0
245.759	-0.27526	-1.95953	0
245.759	-0.277722	-1.95952	0
245.759	-0.280374	-1.9595	0
245.759	-0.282702	-1.95957	0
245.759	-0.285088	-1.95956	0
245.76	-0.287378	-1.95957	0
245.76	-0.28963	-1.95955	0
245.76	-0.291767	-1.95952	0
245.76	-0.294114	-1.95958	0
245.76	-0.29629	-1.95953	0
245.761	-0.298217	-1.95956	0
245.761	-0.300316	-1.95956	0
245.761	-0.302377	-1.95959	0
245.761	-0.304343	-1.95955	0
245.761	-0.306499	-1.95959	0
245.762	-0.308217	-1.95959	0
245.762	-0.310125	-1.95957	0
245.762	-0.311786	-1.9596	0
245.762	-0.313694	-1.95956	0
245.762	-0.31545	-1.9595	0
245.763	-0.317148	-1.95967	0
245.763	-0.318904	-1.95958	0
245.763	-0.320488	-1.95956	0
245.763	-0.322129	-1.95957	0
245.763	-0.323827	-1.9596	0
245.764	-0.325354	-1.95958	0
245.764	-0.3269	-1.95957	0
245.764	-0.328407	-1.95963	0
245.764	-0.329953	-1.95956	0
245.764	-0.331213	-1.95958	0
245.765	-0.332777	-1.95959	0
245.765	-0.334171	-1.95957	0
245.765	-0.33564	-1.95956	0
245.765	-0.336842	-1.95959	0
245.765	-0.33835	-1.9596	0
245.766	-0.339552	-1.95959	0
245.766	-0.340888	-1.95961	0
245.766	-0.34209	-1.95961	0
245.766	-0.343407	-1.95957	0
245.766	-0.34459	-1.95957	0
245.767	-0.345773	-1.95959	0
245.767	-0.346899	-1.95956	0
245.767	-0.348082	-1.9596	0
245.767	-0.349189	-1.95961	0
245.767	-0.35043	-1.95956	0
245.768	-0.351479	-1.95961	0
245.768	-0.352491	-1.95959	0
245.768	-0.354685	-1.95956	0
245.769	-0.356689	-1.95956	0
245.769	-0.358521	-1.95957	0
245.769	-0.360506	-1.95956	0
245.77	-0.362281	-1.9596	0
245.77	-0.364017	-1.95963	0
245.771	-0.365544	-1.95964	0
245.771	-0.367261	-1.95954	0
245.771	-0.368674	-1.95955	0
245.772	-0.370219	-1.9596	0
245.772	-0.371593	-1.95961	0
245.773	-0.37291	-1.95963	0
245.773	-0.37438	-1.95959	0
245.773	-0.375505	-1.95961	0
245.774	-0.376612	-1.95959	0
245.774	-0.377834	-1.95961	0
245.775	-0.378902	-1.95961	0
245.775	-0.380544	-1.95959	0
245.776	-0.381841	-1.9596	0
245.776	-0.383101	-1.95961	0
245.777	-0.384227	-1.95956	0
245.778	-0.385314	-1.95959	0
245.778	-0.386421	-1.95963	0
245.779	-0.387604	-1.95962	0
245.78	-0.388654	-1.95962	0
245.781	-0.389742	-1.95954	0
245.782	-0.390753	-1.95962	0
245.783	-0.391879	-1.95959	0
245.786	-0.392929	-1.95956	0
245.794	-0.391898	-1.95957	0
245.797	-0.390868	-1.9596	0
245.799	-0.389799	-1.95961	0
245.801	-0.388749	-1.95956	0
245.803	-0.387662	-1.95957	0
245.805	-0.386517	-1.95957	0
245.807	-0.385448	-1.95963	0
245.809	-0.384437	-1.95963	0
245.811	-0.383425	-1.95964	0
245.813	-0.382261	-1.95964	0
245.815	-0.381192	-1.95959	0
245.817	-0.380009	-1.9596	0
245.819	-0.378998	-1.95957	0
245.821	-0.377986	-1.95957	0
245.823	-0.376956	-1.95954	0
245.825	-0.375754	-1.95963	0
245.827	-0.374723	-1.9595	0
245.83	-0.373673	-1.95961	0
245.832	-0.372643	-1.95958	0
245.834	-0.371593	-1.95961	0
245.836	-0.370582	-1.95956	0
245.839	-0.369532	-1.95962	0
245.841	-0.368502	-1.95959	0
245.844	-0.367433	-1.9596	0
245.846	-0.366384	-1.95961	0
245.849	-0.365277	-1.95961	0
245.852	-0.364227	-1.95953	0
245.855	-0.363178	-1.95963	0
245.857	-0.36209	-1.95964	0
245.861	-0.361021	-1.95959	0
245.864	-0.359971	-1.95963	0
245.867	-0.35896	-1.95959	0
245.87	-0.35793	-1.95959	0
245.874	-0.356861	-1.95967	0
245.877	-0.35583	-1.9596	0
245.88	-0.354762	-1.9596	0
245.885	-0.353693	-1.95959	0
245.888	-0.352682	-1.95956	0
245.893	-0.351613	-1.95963	0
245.897	-0.350544	-1.95957	0
245.902	-0.349437	-1.95956	0
245.907	-0.348407	-1.95957	0
245.912	-0.347281	-1.95966	0
245.918	-0.346174	-1.95956	0
245.924	-0.345163	-1.95956	0
245.929	-0.344037	-1.95953	0
245.936	-0.343025	-1.95959	0
245.942	-0.342014	-1.95959	0
245.949	-0.340926	-1.95963	0
245.957	-0.339915	-1.95961	0
245.964	-0.338903	-1.95957	0
245.974	-0.337892	-1.95961	0
245.982	-0.336861	-1.95963	0
245.994	-0.33585	-1.95961	0
246.005	-0.334819	-1.95957	0
246.019	-0.333808	-1.9596	0
246.035	-0.332797	-1.95959	0
246.052	-0.331785	-1.95956	0
246.074	-0.330736	-1.95959	0
246.106	-0.329724	-1.95956	0
246.145	-0.328675	-1.95961	0
246.235	-0.327663	-1.9596	0
246.521	-0.328675	-1.95961	0
246.644	-0.329686	-1.95959	0
246.744	-0.330716	-1.95959	0
246.841	-0.331747	-1.95959	0
246.934	-0.332758	-1.95963	0
247.025	-0.333789	-1.95961	0
247.109	-0.3348	-1.95962	0
247.204	-0.335812	-1.95959	0
247.294	-0.33688	-1.95958	0
247.389	-0.337911	-1.95958	0
247.477	-0.338922	-1.95963	0
247.558	-0.339991	-1.95954	0
247.645	-0.341002	-1.95954	0
247.737	-0.342014	-1.95961	0
247.824	-0.343064	-1.95954	0
247.915	-0.34417	-1.9596	0
248.011	-0.345201	-1.9596	0
248.104	-0.34627	-1.95958	0
248.192	-0.347281	-1.95961	0
248.281	-0.348331	-1.9596	0
248.373	-0.34938	-1.95964	0
248.459	-0.350411	-1.95961	0
248.549	-0.351441	-1.95959	0
248.643	-0.352472	-1.95958	0
248.73	-0.353502	-1.95957	0
248.824	-0.354552	-1.95957	0
248.909	-0.355563	-1.95961	0
249.003	-0.356613	-1.95959	0
249.097	-0.357624	-1.95963	0
249.189	-0.358636	-1.95959	0
249.274	-0.359647	-1.95956	0
249.372	-0.360658	-1.95961	0
249.463	-0.36167	-1.95964	0
249.548	-0.3627	-1.9596	0
249.647	-0.363731	-1.95959	0
249.734	-0.364742	-1.95959	0
249.83	-0.365754	-1.95956	0
249.928	-0.366784	-1.95961	0
250.025	-0.367834	-1.95961	0
250.123	-0.368903	-1.95961	0
250.22	-0.369933	-1.95963	0
250.32	-0.370945	-1.95964	0
250.405	-0.371956	-1.95957	0
250.503	-0.372986	-1.95957	0
250.607	-0.374017	-1.95957	0
250.702	-0.375047	-1.95952	0
250.804	-0.376078	-1.95961	0
250.903	-0.377128	-1.95958	0
251.004	-0.378158	-1.95963	0
251.107	-0.379189	-1.95958	0
251.213	-0.380219	-1.95961	0
251.318	-0.381269	-1.95961	0
251.42	-0.382299	-1.95964	0
251.525	-0.383349	-1.9596	0
251.629	-0.38436	-1.95964	0
251.739	-0.385372	-1.9596	0
251.846	-0.386383	-1.95962	0
251.95	-0.387395	-1.95963	0
252.056	-0.388406	-1.95958	0
252.163	-0.389436	-1.95961	0
252.275	-0.390505	-1.95963	0
252.391	-0.391536	-1.95963	0
252.508	-0.392566	-1.95968	0
252.619	-0.393635	-1.95959	0
252.74	-0.394646	-1.95958	0
252.852	-0.395677	-1.95957	0
252.977	-0.396688	-1.95952	0
253.092	-0.3977	-1.9596	0
253.207	-0.39873	-1.95966	0
253.339	-0.399742	-1.95963	0
253.452	-0.400753	-1.95962	0
253.583	-0.401764	-1.9596	0
253.707	-0.402795	-1.95961	0
253.837	-0.403845	-1.95963	0
253.967	-0.404856	-1.95963	0
254.1	-0.405867	-1.95961	0
254.232	-0.406879	-1.95959	0
254.362	-0.407909	-1.95963	0
254.504	-0.408921	-1.9596	0
254.638	-0.409932	-1.95962	0
254.786	-0.410963	-1.95964	0
254.919	-0.411974	-1.95964	0
255.076	-0.412986	-1.95957	0
255.222	-0.414054	-1.95963	0
255.385	-0.415066	-1.9596	0
255.539	-0.416115	-1.95958	0
255.697	-0.417146	-1.95956	0
255.864	-0.418195	-1.95961	0
256.033	-0.419226	-1.95957	0
256.211	-0.420275	-1.95961	0
256.38	-0.421287	-1.95964	0
256.557	-0.422298	-1.95963	0
256.744	-0.42331	-1.95959	0
256.929	-0.424397	-1.95963	0
257.13	-0.425409	-1.95956	0
257.33	-0.42642	-1.95961	0
257.516	-0.427451	-1.95959	0
257.73	-0.428462	-1.95964	0
257.964	-0.429493	-1.9596	0
258.175	-0.430523	-1.95963	0
258.411	-0.431535	-1.95958	0
258.658	-0.432546	-1.95965	0
258.901	-0.433558	-1.95953	0
259.171	-0.434569	-1.95954	0
259.446	-0.43558	-1.95959	0
259.718	-0.436592	-1.95957	0
260.046	-0.437641	-1.95959	0
260.372	-0.438653	-1.95959	0
260.743	-0.439664	-1.95959	0
261.12	-0.440676	-1.95957	0
261.531	-0.441706	-1.95961	0
262.027	-0.442718	-1.95957	0
262.579	-0.443729	-1.95957	0
263.215	-0.44476	-1.9596	0
264.122	-0.445771	-1.95961	0
268.95	-0.44476	-1.95965	0
269.75	-0.443748	-1.95963	0
270.481	-0.442718	-1.95963	0
271.088	-0.441706	-1.95962	0
271.62	-0.440676	-1.95964	0
272.166	-0.439645	-1.9597	0
272.662	-0.438634	-1.95961	0
273.134	-0.437584	-1.95962	0
273.585	-0.436573	-1.95957	0
273.988	-0.435561	-1.95956	0
274.399	-0.43455	-1.95971	0
274.796	-0.433519	-1.95964	0
275.19	-0.432508	-1.95959	0
275.554	-0.431497	-1.95959	0
275.922	-0.430485	-1.95957	0
276.317	-0.429474	-1.95961	0
276.663	-0.428443	-1.95959	0
277.029	-0.427432	-1.95963	0
277.377	-0.426401	-1.95964	0
277.694	-0.425371	-1.95963	0
278.051	-0.424359	-1.95963	0
278.41	-0.42331	-1.95957	0
278.742	-0.422279	-1.95959	0
279.057	-0.421268	-1.95961	0
279.386	-0.420218	-1.95959	0
279.736	-0.419207	-1.95965	0
280.051	-0.418157	-1.95961	0
280.389	-0.417127	-1.95958	0
280.693	-0.416096	-1.95962	0
281.021	-0.415027	-1.95964	0
281.351	-0.414016	-1.95964	0
281.664	-0.412966	-1.95959	0
281.975	-0.411917	-1.95961	0
282.31	-0.410886	-1.95962	0
282.615	-0.409875	-1.95961	0
282.913	-0.408863	-1.95964	0
283.219	-0.407833	-1.9596	0
283.52	-0.406822	-1.95964	0
283.848	-0.405791	-1.95963	0
284.146	-0.404761	-1.95956	0
284.449	-0.40373	-1.95962	0
284.77	-0.402699	-1.95963	0
285.074	-0.401688	-1.95957	0
285.366	-0.400677	-1.95965	0
285.669	-0.399646	-1.95964	0
285.974	-0.398635	-1.9596	0
286.269	-0.397604	-1.95953	0
286.591	-0.396574	-1.95961	0
286.89	-0.395562	-1.95963	0
287.186	-0.394532	-1.95957	0
287.492	-0.39352	-1.95961	0
287.799	-0.392471	-1.95962	0
288.099	-0.391421	-1.95961	0
288.406	-0.390391	-1.95965	0
288.712	-0.389379	-1.95961	0
289.017	-0.388368	-1.95959	0
289.305	-0.387356	-1.95959	0
289.606	-0.386345	-1.95959	0
289.908	-0.385334	-1.95959	0
290.204	-0.384284	-1.9596	0
290.512	-0.383215	-1.95957	0
290.83	-0.382204	-1.95957	0
291.112	-0.381192	-1.95961	0
291.415	-0.380181	-1.95955	0
291.712	-0.37915	-1.95959	0
292	-0.378139	-1.95959	0
292.302	-0.377128	-1.95966	0
292.589	-0.376116	-1.95963	0
292.898	-0.375105	-1.95961	0
293.167	-0.374074	-1.95964	0
293.466	-0.373063	-1.95961	0
293.749	-0.372051	-1.95959	0
294.006	-0.37104	-1.95962	0
294.317	-0.370029	-1.95959	0
294.587	-0.369017	-1.95963	0
294.858	-0.367987	-1.95966	0
295.14	-0.36688	-1.95964	0
295.431	-0.365868	-1.95964	0
295.698	-0.364857	-1.95963	0
295.953	-0.363845	-1.95965	0
296.223	-0.362815	-1.95961	0
296.47	-0.361804	-1.95962	0
296.725	-0.360773	-1.95961	0
296.978	-0.359762	-1.95961	0
297.22	-0.358731	-1.95962	0
297.453	-0.35772	-1.95957	0
297.555	-0.356174	-1.95971	0
297.555	-0.347109	-1.95966	0
297.555	-0.345869	-1.95957	0
297.557	-0.3448	-1.95961	0
297.559	-0.343789	-1.95962	0
297.565	-0.342625	-1.95962	0
297.578	-0.341594	-1.95963	0
297.594	-0.339781	-1.95961	0
297.615	-0.340793	-1.95963	0
297.616	-0.341823	-1.95965	0
297.618	-0.342968	-1.95962	0
297.62	-0.344113	-1.95964	0
297.622	-0.345716	-1.95956	0
297.623	-0.346766	-1.95961	0
297.625	-0.34793	-1.95958	0
297.626	-0.349018	-1.95959	0
297.626	-0.350487	-1.95961	0
297.628	-0.351689	-1.95961	0
297.631	-0.352834	-1.9596	0
297.637	-0.354056	-1.95964	0
297.644	-0.355067	-1.95959	0
297.649	-0.349972	-1.95972	0
297.649	-0.346327	-1.95959	0
297.65	-0.345258	-1.95968	0
297.653	-0.344228	-1.95966	0
297.659	-0.343197	-1.95968	0
297.674	-0.342109	-1.95964	0
297.674	-0.340144	-1.95961	0
297.677	-0.339094	-1.95966	0
297.683	-0.340144	-1.95955	0
297.684	-0.341232	-1.95963	0
297.685	-0.344514	-1.95963	0
297.685	-0.34606	-1.95961	0
297.687	-0.342128	-1.95966	0
297.688	-0.34106	-1.95963	0
297.689	-0.339743	-1.95964	0
297.689	-0.338216	-1.95965	0
297.704	-0.339228	-1.95961	0
297.707	-0.340392	-1.95959	0
297.709	-0.341403	-1.95966	0
297.711	-0.342472	-1.95963	0
297.712	-0.343541	-1.95961	0
297.713	-0.344762	-1.95963	0
297.718	-0.340659	-1.95964	0
297.718	-0.339628	-1.95961	0
297.723	-0.340754	-1.95961	0
297.725	-0.341957	-1.95956	0
297.727	-0.343522	-1.9596	0
297.728	-0.34459	-1.95957	0
297.732	-0.345602	-1.9596	0
297.735	-0.346651	-1.95962	0
297.736	-0.344056	-1.95968	0
297.739	-0.343025	-1.95965	0
297.744	-0.344037	-1.9596	0
297.749	-0.345067	-1.95959	0
297.752	-0.346174	-1.95964	0
297.755	-0.347243	-1.95958	0
297.759	-0.348254	-1.9596	0
297.761	-0.349304	-1.9596	0
297.764	-0.350334	-1.95968	0
297.768	-0.351346	-1.9596	0
297.77	-0.348254	-1.95971	0
297.77	-0.343006	-1.95956	0
297.771	-0.341594	-1.95961	0
297.772	-0.340583	-1.95963	0
297.775	-0.339228	-1.95961	0
297.779	-0.33814	-1.95959	0
297.793	-0.331804	-1.95963	0
297.793	-0.330659	-1.95966	0
297.794	-0.329514	-1.95963	0
297.806	-0.330621	-1.95959	0
297.809	-0.329438	-1.95959	0
297.816	-0.326136	-1.95968	0
297.816	-0.324133	-1.95961	0
297.819	-0.322988	-1.95961	0
297.835	-0.324037	-1.95961	0
297.842	-0.322377	-1.9596	0
297.851	-0.323522	-1.95962	0
297.852	-0.319743	-1.95961	0
297.852	-0.318637	-1.95964	0
297.857	-0.319724	-1.95961	0
297.86	-0.320908	-1.95966	0
297.863	-0.321995	-1.95957	0
297.864	-0.320259	-1.9597	0
297.865	-0.316881	-1.9597	0
297.866	-0.313255	-1.95962	0
297.867	-0.312091	-1.95963	0
297.877	-0.310431	-1.95969	0
297.9	-0.311843	-1.95964	0
297.905	-0.309133	-1.9596	0
297.917	-0.310316	-1.95957	0
297.921	-0.31148	-1.95959	0
297.925	-0.312759	-1.95958	0
297.927	-0.313808	-1.95957	0
297.931	-0.314915	-1.95964	0
297.933	-0.315946	-1.95961	0
297.936	-0.317129	-1.95958	0
297.944	-0.313599	-1.95963	0
297.945	-0.312568	-1.95966	0
297.957	-0.313579	-1.95959	0
297.961	-0.314686	-1.95964	0
297.964	-0.315812	-1.95962	0
297.967	-0.316881	-1.95961	0
297.969	-0.317911	-1.95957	0
297.971	-0.31898	-1.95958	0
297.975	-0.320011	-1.95959	0
297.98	-0.321022	-1.95959	0
297.982	-0.318942	-1.95964	0
297.984	-0.317129	-1.95959	0
297.988	-0.31585	-1.95966	0
297.988	-0.314457	-1.95963	0
298.001	-0.315488	-1.9596	0
298.003	-0.316614	-1.9597	0
298.004	-0.318007	-1.9596	0
298.006	-0.319724	-1.95964	0
298.006	-0.32106	-1.95959	0
298.007	-0.322358	-1.95964	0
298.008	-0.321308	-1.95965	0
298.009	-0.319858	-1.95967	0
298.012	-0.321003	-1.95964	0
298.013	-0.322053	-1.95961	0
298.014	-0.319934	-1.95963	0
298.025	-0.318751	-1.95961	0
298.027	-0.317625	-1.9596	0
298.032	-0.318637	-1.95964	0
298.036	-0.319648	-1.95968	0
298.038	-0.31856	-1.95962	0
298.04	-0.313618	-1.95962	0
298.041	-0.312568	-1.95961	0
298.053	-0.313599	-1.95957	0
298.06	-0.314686	-1.95962	0
298.065	-0.315755	-1.95964	0
298.07	-0.316766	-1.95965	0
298.078	-0.317873	-1.9596	0
298.084	-0.315984	-1.95961	0
298.088	-0.309515	-1.95965	0
298.088	-0.308446	-1.95962	0
298.093	-0.307072	-1.95962	0
298.105	-0.304019	-1.95961	0
298.11	-0.30503	-1.95961	0
298.114	-0.306061	-1.95961	0
298.116	-0.307072	-1.95968	0
298.119	-0.30816	-1.9596	0
298.121	-0.309267	-1.95961	0
298.124	-0.310335	-1.95956	0
298.127	-0.311385	-1.95962	0
298.131	-0.312415	-1.95952	0
298.132	-0.311404	-1.95969	0
298.132	-0.308732	-1.95964	0
298.136	-0.307721	-1.95959	0
298.142	-0.306442	-1.95963	0
298.144	-0.305145	-1.9596	0
298.149	-0.302664	-1.95966	0
298.15	-0.300374	-1.95965	0
298.153	-0.298923	-1.95966	0
298.153	-0.297664	-1.95961	0
298.163	-0.298732	-1.95962	0
298.166	-0.29982	-1.95968	0
298.167	-0.300851	-1.95962	0
298.171	-0.302053	-1.95965	0
298.173	-0.30316	-1.95963	0
298.174	-0.304229	-1.95962	0
298.175	-0.302855	-1.95968	0
298.18	-0.304019	-1.95963	0
298.18	-0.305087	-1.95961	0
298.18	-0.306366	-1.95963	0
298.181	-0.3044	-1.95964	0
298.182	-0.30545	-1.95964	0
298.184	-0.306557	-1.95962	0
298.187	-0.307587	-1.95961	0
298.19	-0.308694	-1.95963	0
298.192	-0.309954	-1.9596	0
298.192	-0.311423	-1.95961	0
298.193	-0.312549	-1.95957	0
298.195	-0.313599	-1.95963	0
298.195	-0.311385	-1.95959	0
298.195	-0.309896	-1.95966	0
298.201	-0.310927	-1.95964	0
298.204	-0.311957	-1.95963	0
298.207	-0.312969	-1.95954	0
298.211	-0.313999	-1.95962	0
298.213	-0.315049	-1.95964	0
298.214	-0.312396	-1.95966	0
298.215	-0.310831	-1.95961	0
298.221	-0.3119	-1.95961	0
298.225	-0.312912	-1.95958	0
298.228	-0.314114	-1.95959	0
298.23	-0.315163	-1.95963	0
298.238	-0.312396	-1.95961	0
298.239	-0.311366	-1.95961	0
298.242	-0.310164	-1.95958	0
298.248	-0.308465	-1.95965	0
298.248	-0.30711	-1.95957	0
298.263	-0.308293	-1.95958	0
298.264	-0.305316	-1.95976	0
298.264	-0.297454	-1.95979	0
298.264	-0.295698	-1.95959	0
298.266	-0.294477	-1.95961	0
298.268	-0.293446	-1.95969	0
298.269	-0.288771	-1.95974	0
298.269	-0.284344	-1.95961	0
298.27	-0.283275	-1.9596	0
298.271	-0.281996	-1.95959	0
298.274	-0.280889	-1.9596	0
298.275	-0.278962	-1.95966	0
298.276	-0.277951	-1.95959	0
298.286	-0.274077	-1.95967	0
298.286	-0.272321	-1.95959	0
298.29	-0.269573	-1.95964	0
298.29	-0.26692	-1.9596	0
298.292	-0.26568	-1.95957	0
298.294	-0.26192	-1.95965	0
298.294	-0.259592	-1.95963	0
298.295	-0.258524	-1.95952	0
298.297	-0.257455	-1.95959	0
298.299	-0.256233	-1.95964	0
298.304	-0.255012	-1.95962	0
298.311	-0.256062	-1.95961	0
298.312	-0.254993	-1.95958	0
298.314	-0.256043	-1.95959	0
298.314	-0.257684	-1.95966	0
298.315	-0.256634	-1.95961	0
298.321	-0.257703	-1.95963	0
298.322	-0.255031	-1.95967	0
298.323	-0.253943	-1.95964	0
298.331	-0.254955	-1.95966	0
298.333	-0.256024	-1.95959	0
298.336	-0.254917	-1.95966	0
298.34	-0.251329	-1.95975	0
298.34	-0.249325	-1.95962	0
298.345	-0.247932	-1.95964	0
298.352	-0.249077	-1.95961	0
298.354	-0.243791	-1.95963	0
298.356	-0.242398	-1.95961	0
298.36	-0.241177	-1.95959	0
298.365	-0.242226	-1.95963	0
298.367	-0.243352	-1.95963	0
298.367	-0.241158	-1.95962	0
298.368	-0.240089	-1.95961	0
298.374	-0.241138	-1.95959	0
298.375	-0.238448	-1.95964	0
298.382	-0.237207	-1.95962	0
298.386	-0.2386	-1.95957	0
298.389	-0.239688	-1.95959	0
298.391	-0.240719	-1.95963	0
298.396	-0.241806	-1.95953	0
298.397	-0.243295	-1.9596	0
298.397	-0.244822	-1.95966	0
298.399	-0.243161	-1.95961	0
298.402	-0.241883	-1.95959	0
298.403	-0.238257	-1.95959	0
298.404	-0.235375	-1.95968	0
298.407	-0.23381	-1.95963	0
298.414	-0.23486	-1.95957	0
298.417	-0.235871	-1.95961	0
298.419	-0.236902	-1.95963	0
298.421	-0.237971	-1.95962	0
298.423	-0.239116	-1.95961	0
298.425	-0.237074	-1.95965	0
298.429	-0.238123	-1.95964	0
298.43	-0.239173	-1.95965	0
298.431	-0.24028	-1.95964	0
298.432	-0.238963	-1.95963	0
298.432	-0.237684	-1.95965	0
298.434	-0.238753	-1.95955	0
298.437	-0.237131	-1.95963	0
298.439	-0.235471	-1.9596	0
298.443	-0.236711	-1.95963	0
298.445	-0.237818	-1.95961	0
298.45	-0.238829	-1.95959	0
298.452	-0.239917	-1.95962	0
298.454	-0.241081	-1.95957	0
298.455	-0.238906	-1.95963	0
298.463	-0.239974	-1.95967	0
298.466	-0.241043	-1.95953	0
298.466	-0.237493	-1.9596	0
298.467	-0.236368	-1.95961	0
298.467	-0.234058	-1.95965	0
298.474	-0.235108	-1.9596	0
298.474	-0.232971	-1.95963	0
298.479	-0.229803	-1.95963	0
298.483	-0.228677	-1.95964	0
298.484	-0.224688	-1.95963	0
298.485	-0.223658	-1.95961	0
298.485	-0.220337	-1.95963	0
298.488	-0.219307	-1.95962	0
298.501	-0.2182	-1.95961	0
298.511	-0.219231	-1.95962	0
298.511	-0.217723	-1.95963	0
298.516	-0.218734	-1.95963	0
298.517	-0.217494	-1.95969	0
298.518	-0.216349	-1.95964	0
298.522	-0.214937	-1.95963	0
298.527	-0.215986	-1.95968	0
298.529	-0.213868	-1.95964	0
298.536	-0.215051	-1.95958	0
298.537	-0.21236	-1.95963	0
298.544	-0.210929	-1.95961	0
298.549	-0.212074	-1.95969	0
298.55	-0.209918	-1.95959	0
298.556	-0.210967	-1.95959	0
298.557	-0.207437	-1.95972	0
298.557	-0.206197	-1.95959	0
298.558	-0.20467	-1.95958	0
298.56	-0.201502	-1.95969	0
298.56	-0.200491	-1.95965	0
298.563	-0.199403	-1.95957	0
298.572	-0.200471	-1.95962	0
298.575	-0.199422	-1.95973	0
298.575	-0.197304	-1.95961	0
298.582	-0.194861	-1.95962	0
298.584	-0.192475	-1.9597	0
298.602	-0.191388	-1.95968	0
298.602	-0.189327	-1.95959	0
298.605	-0.187666	-1.95962	0
298.605	-0.186407	-1.95957	0
298.609	-0.183964	-1.95961	0
298.61	-0.182781	-1.95962	0
298.618	-0.181751	-1.95964	0
298.619	-0.180109	-1.95967	0
298.647	-0.17906	-1.9596	0
298.653	-0.1778	-1.95966	0
298.654	-0.176274	-1.95967	0
298.654	-0.17448	-1.95963	0
298.682	-0.175587	-1.95966	0
298.687	-0.176693	-1.9596	0
298.688	-0.174919	-1.95959	0
298.695	-0.175968	-1.95966	0
298.697	-0.177151	-1.95966	0
298.699	-0.178239	-1.95961	0
298.7	-0.180548	-1.95963	0
298.712	-0.181617	-1.95958	0
298.714	-0.182647	-1.95964	0
298.716	-0.18156	-1.95962	0
298.717	-0.180186	-1.9596	0
298.718	-0.178945	-1.95964	0
298.724	-0.177896	-1.95955	0
298.724	-0.176732	-1.95957	0
298.725	-0.175701	-1.95964	0
298.733	-0.173774	-1.95966	0
298.746	-0.172266	-1.95964	0
298.747	-0.171121	-1.95961	0
298.749	-0.169003	-1.95961	0
298.749	-0.16782	-1.95963	0
298.752	-0.168888	-1.95962	0
298.753	-0.167743	-1.95968	0
298.757	-0.166503	-1.95964	0
298.758	-0.164995	-1.95966	0
298.773	-0.166007	-1.95963	0
298.777	-0.164671	-1.95961	0
298.778	-0.16364	-1.95964	0
298.78	-0.162285	-1.95968	0
298.781	-0.161179	-1.95961	0
298.796	-0.16011	-1.95959	0
298.802	-0.159041	-1.95964	0
298.807	-0.157648	-1.95959	0
298.808	-0.156045	-1.95964	0
298.809	-0.154976	-1.95964	0
298.813	-0.153679	-1.95964	0
298.82	-0.152667	-1.95964	0
298.828	-0.151217	-1.95963	0
298.831	-0.149957	-1.95961	0
298.842	-0.151007	-1.9596	0
298.844	-0.149881	-1.95963	0
298.854	-0.148717	-1.9596	0
298.877	-0.149843	-1.95959	0
298.881	-0.150892	-1.95966	0
298.886	-0.149366	-1.95961	0
298.908	-0.148335	-1.9596	0
298.926	-0.149423	-1.95964	0
298.933	-0.150492	-1.95959	0
298.941	-0.151541	-1.95961	0
298.951	-0.150396	-1.95961	0
298.952	-0.151446	-1.95955	0
298.955	-0.150244	-1.9596	0
298.959	-0.149213	-1.95968	0
298.96	-0.150263	-1.95961	0
298.973	-0.149251	-1.95963	0
298.98	-0.147667	-1.95959	0
298.984	-0.146656	-1.95962	0
298.988	-0.145549	-1.95956	0
298.989	-0.144309	-1.95963	0
298.991	-0.14324	-1.95961	0
298.993	-0.142057	-1.95964	0
299.002	-0.140969	-1.95966	0
299.016	-0.139939	-1.95959	0
299.022	-0.138813	-1.95964	0
299.024	-0.137629	-1.9596	0
299.026	-0.136542	-1.95963	0
299.035	-0.135511	-1.95956	0
299.071	-0.134423	-1.95961	0
299.08	-0.132935	-1.95968	0
299.082	-0.131752	-1.95964	0
299.084	-0.130607	-1.95961	0
299.086	-0.129538	-1.95957	0
299.088	-0.130549	-1.95956	0
299.105	-0.129404	-1.95964	0
299.11	-0.128317	-1.95967	0
299.156	-0.126866	-1.95962	0
299.166	-0.125721	-1.95959	0
299.167	-0.12471	-1.95963	0
299.181	-0.125798	-1.95961	0
299.19	-0.12471	-1.95967	0
299.191	-0.123546	-1.95959	0
299.195	-0.122458	-1.95961	0
299.195	-0.121141	-1.95957	0
299.209	-0.120092	-1.95961	0
299.231	-0.119042	-1.95957	0
299.291	-0.117973	-1.95963	0
299.3	-0.116886	-1.95957	0
299.323	-0.117935	-1.95961	0
299.372	-0.118947	-1.95961	0
299.391	-0.117668	-1.95961	0
299.405	-0.116618	-1.95962	0
299.422	-0.115531	-1.95963	0
299.47	-0.114443	-1.95963	0
299.475	-0.113412	-1.95961	0
299.563	-0.112382	-1.95969	0
299.572	-0.111371	-1.95961	0
299.617	-0.11034	-1.95959	0
299.628	-0.109195	-1.95964	0
299.639	-0.108184	-1.95961	0
299.641	-0.107077	-1.95961	0
299.651	-0.106065	-1.95963	0
299.661	-0.105054	-1.95962	0
299.726	-0.103985	-1.95962	0
299.761	-0.102974	-1.95961	0
299.805	-0.101962	-1.95961	0
299.867	-0.100932	-1.95963	0
299.881	-0.0999013	-1.95963	0
299.952	-0.0988517	-1.95963	0
299.977	-0.0978021	-1.95961	0
300.019	-0.0967525	-1.95962	0
300.045	-0.0957411	-1.95953	0
300.08	-0.0947106	-1.95959	0
300.118	-0.0936228	-1.95961	0
300.143	-0.0926114	-1.95964	0
300.197	-0.0936992	-1.95957	0
300.249	-0.0926687	-1.95959	0
300.333	-0.0916382	-1.95961	0
300.452	-0.0906077	-1.95964	0
300.499	-0.0895962	-1.95961	0
300.538	-0.0884512	-1.95964	0
300.567	-0.0873635	-1.95963	0
300.601	-0.085894	-1.95963	0
300.765	-0.0848253	-1.95964	0
300.966	-0.0837567	-1.95958	0
301.093	-0.0827452	-1.95966	0
301.183	-0.0816956	-1.95959	0
301.203	-0.0805506	-1.95957	0
301.249	-0.079501	-1.95964	0
301.321	-0.0784896	-1.95965	0
301.505	-0.0774209	-1.95962	0
301.599	-0.0763904	-1.95961	0
301.751	-0.0752836	-1.95966	0
301.963	-0.0742149	-1.95954	0
302.247	-0.0731653	-1.95955	0
302.516	-0.0721539	-1.95965	0
302.849	-0.0711425	-1.95961	0
303.397	-0.070112	-1.95966	0
304.017	-0.0690814	-1.95963	0
304.198	-0.0680509	-1.95963	0
305.513	-0.0670204	-1.95965	0
306.003	-0.066009	-1.95961	0
306.323	-0.0649976	-1.95962	0
306.962	-0.0639861	-1.95964	0
307.639	-0.0629366	-1.95959	0
308.106	-0.0619251	-1.95965	0
308.945	-0.0608755	-1.95966	0
309.634	-0.0598641	-1.95961	0
311.17	-0.0588527	-1.95961	0
314.159	-0.0578222	-1.95962	0
314.66	-0.0568107	-1.95962	0
317.164	-0.0557039	-1.95956	0
322.164	-0.0557993	-1.95966	0
323.662	-0.0568107	-1.95964	0
328.662	-0.0568489	-1.95958	0
332.13	-0.0578794	-1.95961	0
333.362	-0.056868	-1.95963	0
335.169	-0.0558566	-1.95964	0
337.461	-0.056868	-1.95963	0
337.744	-0.0557993	-1.95966	0
338.275	-0.0568298	-1.95961	0
340.267	-0.0578603	-1.95964	0
345.267	-0.0575932	-1.95963	0
346.581	-0.0586237	-1.95964	0
347.188	-0.0576123	-1.95966	0
350.188	-0.0586618	-1.95959	0
352.073	-0.0597305	-1.95964	0
353.714	-0.060742	-1.95957	0
358.714	-0.060761	-1.95961	0
363.714	-0.0605129	-1.95961	0
368.28	-0.0615244	-1.95961	0
369.022	-0.0605129	-1.95959	0
369.145	-0.0615435	-1.95966	0
371.913	-0.0625549	-1.9596	0
374.478	-0.0615244	-1.95962	0
379.301	-0.0627457	-1.95963	0
381.031	-0.0638144	-1.95964	0
382.394	-0.062803	-1.95965	0
387.394	-0.0636236	-1.95959	0
390.372	-0.0646541	-1.95965	0
394.831	-0.0656655	-1.95958	0
399.054	-0.0666769	-1.95966	0
400.232	-0.0656464	-1.95963	0
404.426	-0.0666578	-1.95959	0
409.426	-0.0672303	-1.95967	0
411.812	-0.0682418	-1.95966	0
414.062	-0.0693104	-1.95963	0
414.649	-0.0703219	-1.95965	0
418.524	-0.0713333	-1.95959	0
423.524	-0.0718676	-1.95964	0
425.752	-0.0720585	-1.9597	0