File: EXPERIMENTAL/Data/Cell-cycling/E-measurements/C-cell/2024-04-25_E-measurements_sample-LiFSI-electrolyte-01_C-cell_Cu-Li-Cellgard2400-separator_25muL-LiFSI-in-DME_outside-glovebox_sigma-0.02_added-OCV-0.1s_02_MB_C02.txt
time/s	Ewe/V	I/mA	error
60.053	2.55262	-0.0250311	0
60.1732	0.00942767	-10.9691	0
60.1736	0.00940858	-10.9106	0
60.174	0.00946585	-10.8508	0
60.1744	0.00937041	-10.7859	0
60.1748	0.00937041	-10.7337	0
60.1752	0.00929405	-10.6675	0
60.1756	0.00944676	-10.6077	0
60.176	0.00927497	-10.5472	0
60.1764	0.00937041	-10.495	0
60.1768	0.00937041	-10.4403	0
60.1772	0.0093895	-10.3792	0
60.1776	0.00956129	-10.3258	0
60.178	0.00940858	-10.2678	0
60.1786	0.00940858	-10.194	0
60.179	0.00935132	-10.1355	0
60.1796	0.00933223	-10.0515	0
60.1802	0.00937041	-9.9732	0
60.1806	0.00940858	-9.92165	0
60.181	0.00937041	-9.87074	0
60.1814	0.0093895	-9.81729	0
60.1818	0.0093895	-9.76701	0
60.1824	0.0093895	-9.69637	0
60.183	0.00946585	-9.62128	0
60.1836	0.00942767	-9.55064	0
60.1842	0.00931314	-9.47491	0
60.1848	0.00946585	-9.403	0
60.1854	0.00935132	-9.33427	0
60.186	0.00942767	-9.26236	0
60.1866	0.00937041	-9.1949	0
60.1872	0.00925588	-9.12999	0
60.1878	0.00929405	-9.05617	0
60.1884	0.00937041	-8.99572	0
60.189	0.00940858	-8.92508	0
60.1896	0.00935132	-8.86717	0
60.1902	0.00950403	-8.80162	0
60.1908	0.00946585	-8.73544	0
60.1914	0.00940858	-8.6718	0
60.192	0.0093895	-8.61261	0
60.1926	0.00937041	-8.55025	0
60.1932	0.00931314	-8.48916	0
60.194	0.0093895	-8.42297	0
60.1946	0.00929405	-8.36252	0
60.1952	0.00940858	-8.30206	0
60.1958	0.00940858	-8.24797	0
60.1964	0.00937041	-8.18242	0
60.1972	0.00935132	-8.12578	0
60.1978	0.00942767	-8.06724	0
60.1984	0.00937041	-8.00805	0
60.199	0.0093895	-7.95523	0
60.1996	0.00940858	-7.9005	0
60.2004	0.00937041	-7.83305	0
60.2012	0.00935132	-7.7675	0
60.202	0.00937041	-7.69877	0
60.2028	0.0093895	-7.63641	0
60.2036	0.0093895	-7.56959	0
60.2044	0.0093895	-7.49577	0
60.2054	0.00946585	-7.42322	0
60.2062	0.00940858	-7.3704	0
60.2068	0.00937041	-7.31249	0
60.2076	0.00940858	-7.26158	0
60.2084	0.00942767	-7.19857	0
60.2092	0.00931314	-7.14766	0
60.21	0.00931314	-7.08021	0
60.2108	0.00937041	-7.02993	0
60.2116	0.00942767	-6.97075	0
60.2124	0.00944676	-6.91857	0
60.2132	0.00933223	-6.86638	0
60.214	0.00935132	-6.8072	0
60.2148	0.00925588	-6.75629	0
60.2156	0.00929405	-6.70347	0
60.2166	0.0093895	-6.64111	0
60.2174	0.00948494	-6.58383	0
60.2184	0.00933223	-6.52274	0
60.2194	0.00942767	-6.46483	0
60.2202	0.00929405	-6.41455	0
60.2212	0.00935132	-6.35664	0
60.2222	0.00942767	-6.2981	0
60.2232	0.0093895	-6.24018	0
60.2242	0.00927497	-6.18291	0
60.2254	0.00940858	-6.11673	0
60.2264	0.00935132	-6.06582	0
60.2274	0.00929405	-6.00727	0
60.2284	0.0093895	-5.95509	0
60.2296	0.00937041	-5.89272	0
60.2308	0.0093895	-5.82781	0
60.232	0.00927497	-5.77308	0
60.2332	0.00940858	-5.71772	0
60.2342	0.00940858	-5.66617	0
60.2354	0.00940858	-5.60826	0
60.2366	0.00931314	-5.55416	0
60.2378	0.00933223	-5.49753	0
60.239	0.00931314	-5.44343	0
60.2404	0.0093895	-5.38616	0
60.2416	0.00940858	-5.33143	0
60.2428	0.00942767	-5.27734	0
60.2444	0.00940858	-5.21943	0
60.2456	0.0093895	-5.1647	0
60.247	0.00929405	-5.11315	0
60.2482	0.00937041	-5.05906	0
60.2498	0.00942767	-5.00115	0
60.2514	0.00937041	-4.93815	0
60.2532	0.00944676	-4.88087	0
60.2548	0.00940858	-4.81787	0
60.2564	0.0093895	-4.76632	0
60.2578	0.00931314	-4.71351	0
60.2594	0.00940858	-4.66069	0
60.2612	0.00931314	-4.60214	0
60.2628	0.00942767	-4.54995	0
60.2646	0.00931314	-4.49841	0
60.2662	0.00933223	-4.44813	0
60.268	0.00929405	-4.39595	0
60.2698	0.00952311	-4.34504	0
60.2716	0.00935132	-4.29158	0
60.273	0.00933223	-4.4012	0
60.3032	0.00935132	-3.57091	0
60.306	0.00940858	-3.51823	0
60.3088	0.00931314	-3.46567	0
60.3116	0.00937041	-3.41522	0
60.3146	0.00929405	-3.36318	0
60.3178	0.00929405	-3.30916	0
60.321	0.00933223	-3.25699	0
60.3242	0.0093895	-3.20653	0
60.3276	0.00931314	-3.1543	0
60.3312	0.00946585	-3.10117	0
60.3348	0.00946585	-3.04995	0
60.3386	0.00927497	-2.99746	0
60.3424	0.00950403	-2.94669	0
60.3464	0.00942767	-2.89547	0
60.3506	0.0093895	-2.84304	0
60.3548	0.00940858	-2.79285	0
60.3594	0.00925588	-2.74023	0
60.364	0.00940858	-2.68907	0
60.369	0.00935132	-2.63652	0
60.374	0.00948494	-2.58575	0
60.3792	0.00942767	-2.53421	0
60.3846	0.00940858	-2.48408	0
60.3904	0.00931314	-2.43203	0
60.3964	0.00933223	-2.38043	0
60.4026	0.00929405	-2.3296	0
60.409	0.00937041	-2.27908	0
60.4158	0.00942767	-2.22837	0
60.423	0.00942767	-2.17715	0
60.4304	0.00942767	-2.126	0
60.4382	0.00940858	-2.07599	0
60.4464	0.00927497	-2.02541	0
60.4552	0.00946585	-1.97508	0
60.4644	0.00940858	-1.9245	0
60.474	0.00944676	-1.87322	0
60.4844	0.00946585	-1.82276	0
60.4952	0.0093895	-1.77205	0
60.507	0.0093895	-1.72173	0
60.519	0.00946585	-1.67146	0
60.5324	0.00940858	-1.62075	0
60.5464	0.0092177	-1.57055	0
60.5618	0.00937041	-1.51902	0
60.578	0.00937041	-1.46882	0
60.5958	0.00937041	-1.41805	0
60.6146	0.00946585	-1.36734	0
60.6356	0.00931314	-1.31707	0
60.658	0.00931314	-1.2663	0
60.6826	0.00935132	-1.21617	0
60.7096	0.00944676	-1.16616	0
60.7396	0.00933223	-1.11577	0
60.7726	0.00944676	-1.0655	0
60.8098	0.00933223	-1.01549	0
60.8512	0.00937041	-0.965358	0
60.898	0.00937041	-0.915349	0
60.9518	0.00931314	-0.864576	0
61.0148	0.00929405	-0.814377	0
61.087	0.00940858	-0.763668	0
61.1722	0.00940858	-0.713341	0
61.2728	0.00933223	-0.663078	0
61.3938	0.00933223	-0.612751	0
61.5422	0.00940858	-0.562551	0
61.727	0.00942767	-0.512542	0
61.9614	0.00935132	-0.462469	0
62.2902	0.0093895	-0.412353	0
62.7206	0.0093895	-0.362306	0
63.338	0.00948494	-0.312259	0
64.2918	0.0093895	-0.262225	0
65.0528	0.00933223	-0.235687	0
65.0534	0.00944676	-0.235298	0
67.351	0.00929405	-0.185296	0
72.4614	0.00937041	-0.135281	0
82.4614	0.00931314	-0.0969281	0
92.4614	0.00944676	-0.0767044	0
102.461	0.00940858	-0.0618725	0
112.461	0.00933223	-0.0529287	0
122.461	0.00933223	-0.0463021	0
132.461	0.00935132	-0.0414234	0
142.461	0.00925588	-0.0374596	0
152.461	0.0093895	-0.0342302	0
162.461	0.0093895	-0.0315525	0
172.461	0.00940858	-0.0293718	0
182.461	0.00944676	-0.0274284	0
192.461	0.00927497	-0.0258	0
202.461	0.00933223	-0.0243543	0
212.461	0.00927497	-0.0230886	0
222.461	0.0093895	-0.0219248	0
232.461	0.00933223	-0.0209518	0
242.461	0.00940858	-0.0199973	0
252.461	0.0093895	-0.019144	0
262.461	0.00940858	-0.0184949	0
272.461	0.00933223	-0.0177886	0
282.461	0.00933223	-0.01713	0
292.461	0.00929405	-0.0165121	0
302.461	0.00935132	-0.0160202	0
312.461	0.00946585	-0.0153947	0
322.461	0.00940858	-0.0149766	0
332.461	0.00942767	-0.014514	0
342.461	0.00931314	-0.0141157	0
352.461	0.0093895	-0.01373	0
362.461	0.00933223	-0.0134621	0
372.461	0.00931314	-0.0130606	0
382.461	0.00944676	-0.0126642	0
392.461	0.00937041	-0.0124275	0
402.461	0.00933223	-0.0121888	0
412.461	0.00929405	-0.0118974	0
422.461	0.00933223	-0.011562	0
432.461	0.00940858	-0.0113088	0
442.461	0.00937041	-0.0110606	0
452.461	0.00931314	-0.0108735	0
462.461	0.00942767	-0.0106521	0
472.461	0.00935132	-0.0103759	0
482.461	0.00946585	-0.010255	0
492.461	0.00935132	-0.00997057	0
502.461	0.00940858	-0.00978094	0
512.461	0.00935132	-0.00972876	0
522.461	0.00937041	-0.00950795	0
532.461	0.00933223	-0.00937114	0
542.461	0.00931314	-0.00919297	0
552.461	0.00937041	-0.00904915	0
562.461	0.00944676	-0.00881307	0
572.461	0.00931314	-0.00883344	0
582.461	0.00935132	-0.00856808	0
592.461	0.0093895	-0.00846691	0
602.461	0.00933223	-0.00841855	0
612.461	0.00937041	-0.00825437	0
622.461	0.00933223	-0.00808574	0
632.461	0.00937041	-0.00792029	0
642.461	0.00931314	-0.00787957	0
652.461	0.0093895	-0.0078013	0
662.461	0.00929405	-0.00774657	0
672.461	0.00940858	-0.0075334	0
682.461	0.00935132	-0.0074774	0
692.461	0.0093895	-0.00746086	0
702.461	0.00937041	-0.00728078	0
712.461	0.00935132	-0.00711915	0
722.461	0.00933223	-0.00707206	0
732.461	0.00937041	-0.00700015	0
742.461	0.00935132	-0.00683916	0
752.461	0.00940858	-0.00675071	0
762.461	0.00931314	-0.00680607	0
772.461	0.00942767	-0.00667435	0
782.461	0.00942767	-0.00655408	0
792.461	0.00935132	-0.00645227	0
802.461	0.00935132	-0.00649681	0
812.461	0.0093895	-0.00642236	0
822.461	0.00940858	-0.00627028	0
832.461	0.00931314	-0.00622701	0
842.461	0.00935132	-0.00613665	0
852.461	0.0093895	-0.00602592	0
862.461	0.0093895	-0.00603229	0
872.461	0.00935132	-0.00589675	0
882.461	0.00940858	-0.00594893	0
892.461	0.00940858	-0.00589484	0
902.461	0.00937041	-0.00571412	0
912.461	0.0093895	-0.00578666	0
922.461	0.00929405	-0.00559894	0
932.461	0.00937041	-0.00553022	0
942.461	0.00927497	-0.00554676	0
952.461	0.00935132	-0.00547231	0
962.461	0.00933223	-0.00537177	0
972.461	0.00933223	-0.00534568	0
982.461	0.00935132	-0.00533614	0
992.461	0.00935132	-0.00527823	0
1002.46	0.00935132	-0.00530814	0
1012.46	0.00942767	-0.00510769	0
1022.46	0.00940858	-0.00515223	0
1032.46	0.00927497	-0.00514905	0
1042.46	0.0093895	-0.00503515	0
1052.46	0.00944676	-0.00489006	0
1062.46	0.00927497	-0.00492824	0
1072.46	0.0093895	-0.00490534	0
1082.46	0.00944676	-0.00489388	0
1092.46	0.00944676	-0.00478952	0
1102.46	0.00946585	-0.00478634	0
1112.46	0.00948494	-0.00476407	0
1122.46	0.00935132	-0.00468326	0
1132.46	0.00940858	-0.00453244	0
1142.46	0.00937041	-0.0046018	0
1152.46	0.00935132	-0.00456808	0
1162.46	0.00929405	-0.00456999	0
1172.46	0.00940858	-0.00449546	0
1182.46	0.00948494	-0.00446216	0
1192.46	0.00933223	-0.00440727	0
1202.46	0.00931314	-0.00439479	0
1212.46	0.00935132	-0.00436168	0
1222.46	0.00927497	-0.00432176	0
1232.46	0.0093895	-0.00428597	0
1242.46	0.00933223	-0.00425464	0
1252.46	0.00935132	-0.00420727	0
1262.46	0.00929405	-0.00420013	0
1272.46	0.00937041	-0.00411933	0
1282.46	0.00931314	-0.00412309	0
1292.46	0.00931314	-0.00411685	0
1302.46	0.00933223	-0.00406145	0
1312.46	0.00940858	-0.0040305	0
1322.46	0.00937041	-0.00400719	0
1332.27	0.00933223	-0.00392372	0
1332.27	0.00940858	-0.00393339	0