File: EXPERIMENTAL/Data/Cell-cycling/E-measurements/C-cell/2024-04-29_E-measurements_sample-Ionic-03_C-cell_Cu-Li_glassfiber-separator_25muL-ionic-electrolyte_outside-glovebox_sigma-0.02_added-OCV-0.1s_02_MB_C01.txt
time/s	Ewe/V	I/mA	error
60.053	2.72273	-0.0250252	0
60.1432	0.00934224	-10.3593	0
60.1438	0.00947588	-10.3001	0
60.1444	0.00936133	-10.2405	0
60.145	0.0094186	-10.1815	0
60.1456	0.00939951	-10.1235	0
60.1462	0.00945679	-10.0656	0
60.1468	0.0094186	-10.0073	0
60.1474	0.0094377	-9.95023	0
60.148	0.0094186	-9.89408	0
60.1486	0.00936133	-9.8373	0
60.1492	0.00945679	-9.78134	0
60.1498	0.0094186	-9.72551	0
60.1504	0.0094377	-9.67012	0
60.151	0.00938042	-9.6148	0
60.1516	0.0094186	-9.5598	0
60.1522	0.00949497	-9.50549	0
60.1528	0.0094186	-9.45183	0
60.1534	0.0094377	-9.3981	0
60.154	0.00936133	-9.34437	0
60.1546	0.00938042	-9.29197	0
60.1552	0.0094186	-9.23888	0
60.1558	0.0094377	-9.18572	0
60.1564	0.0094377	-9.13435	0
60.157	0.00939951	-9.08246	0
60.1576	0.00939951	-9.0309	0
60.1582	0.0094186	-8.98009	0
60.1588	0.00939951	-8.92923	0
60.1594	0.00939951	-8.87893	0
60.1602	0.00938042	-8.81228	0
60.161	0.0094186	-8.74671	0
60.1616	0.0094377	-8.69667	0
60.1624	0.00949497	-8.63174	0
60.1632	0.0094377	-8.56744	0
60.164	0.00939951	-8.50384	0
60.1648	0.0094186	-8.44012	0
60.1656	0.0094186	-8.37747	0
60.1664	0.00938042	-8.31553	0
60.1672	0.00949497	-8.25384	0
60.168	0.0094377	-8.1933	0
60.1688	0.00930406	-8.13377	0
60.1696	0.00939951	-8.07425	0
60.1704	0.00951406	-8.01479	0
60.1712	0.00934224	-7.95679	0
60.172	0.00934224	-7.89956	0
60.1728	0.0094186	-7.84208	0
60.1736	0.00938042	-7.78548	0
60.1744	0.00932315	-7.73003	0
60.1752	0.0094186	-7.67528	0
60.176	0.00936133	-7.62066	0
60.1768	0.0094377	-7.56718	0
60.1776	0.00936133	-7.51396	0
60.1784	0.00930406	-7.46119	0
60.1792	0.0094186	-7.40892	0
60.18	0.00934224	-7.3571	0
60.1808	0.00938042	-7.30623	0
60.1818	0.00938042	-7.24366	0
60.1828	0.00934224	-7.18178	0
60.1838	0.0094377	-7.12079	0
60.1848	0.00939951	-7.06088	0
60.1858	0.00939951	-7.00161	0
60.1868	0.0094186	-6.94273	0
60.1878	0.0094186	-6.88499	0
60.1888	0.00953315	-6.82833	0
60.1898	0.00934224	-6.77339	0
60.1908	0.00939951	-6.71749	0
60.1918	0.00934224	-6.66325	0
60.1928	0.00938042	-6.60946	0
60.1938	0.00939951	-6.55668	0
60.1948	0.00938042	-6.50448	0
60.1958	0.00945679	-6.45317	0
60.1968	0.0094377	-6.40205	0
60.1978	0.0094377	-6.35137	0
60.199	0.00938042	-6.29293	0
60.2002	0.00945679	-6.23443	0
60.2014	0.00939951	-6.17611	0
60.2026	0.00939951	-6.11926	0
60.2038	0.00951406	-6.0626	0
60.205	0.0094186	-6.009	0
60.2062	0.0094186	-5.95419	0
60.2074	0.0094186	-5.90001	0
60.2086	0.0094377	-5.84673	0
60.2098	0.00939951	-5.79503	0
60.211	0.00949497	-5.74353	0
60.2122	0.00939951	-5.69247	0
60.2134	0.00939951	-5.64244	0
60.2148	0.00945679	-5.58482	0
60.2162	0.0094186	-5.52797	0
60.2176	0.00939951	-5.47195	0
60.219	0.00939951	-5.41656	0
60.2204	0.00938042	-5.36226	0
60.2218	0.0094186	-5.30789	0
60.2232	0.00936133	-5.25544	0
60.2246	0.00939951	-5.20285	0
60.226	0.00945679	-5.15148	0
60.2274	0.0094377	-5.10029	0
60.229	0.0094377	-5.04434	0
60.2304	0.00945679	-4.99353	0
60.232	0.00936133	-4.93853	0
60.2336	0.00947588	-4.88416	0
60.2352	0.0094186	-4.8312	0
60.2368	0.00947588	-4.77747	0
60.2384	0.0094186	-4.72609	0
60.24	0.00939951	-4.67497	0
60.2416	0.00938042	-4.62436	0
60.2434	0.00936133	-4.56865	0
60.2452	0.00939951	-4.51454	0
60.247	0.0094186	-4.46094	0
60.2488	0.00938042	-4.40893	0
60.2506	0.0094377	-4.3587	0
60.2526	0.0094186	-4.30325	0
60.2546	0.00938042	-4.24933	0
60.2566	0.0094377	-4.19617	0
60.2586	0.00938042	-4.14473	0
60.2606	0.00939951	-4.0945	0
60.2628	0.00945679	-4.04071	0
60.265	0.00947588	-3.9878	0
60.2674	0.00953315	-3.93299	0
60.2698	0.00939951	-3.87964	0
60.2722	0.00949497	-3.82719	0
60.2746	0.00945679	-3.77696	0
60.2772	0.0094186	-3.72412	0
60.2798	0.00932315	-3.67332	0
60.2826	0.00951406	-3.6199	0
60.2856	0.00949497	-3.56668	0
60.2886	0.00938042	-3.51435	0
60.2916	0.00938042	-3.46381	0
60.2948	0.0094186	-3.41288	0
60.2982	0.0094377	-3.3601	0
60.3018	0.00938042	-3.30739	0
60.3054	0.00947588	-3.25627	0
60.3092	0.00939951	-3.20578	0
60.3132	0.00934224	-3.15384	0
60.3174	0.0094186	-3.10195	0
60.3218	0.00936133	-3.05039	0
60.3264	0.00947588	-2.99895	0
60.3312	0.0094186	-2.94757	0
60.336	0.0094377	-2.89703	0
60.3412	0.00938042	-2.84641	0
60.3466	0.0094377	-2.79574	0
60.3522	0.00945679	-2.74449	0
60.3582	0.0094377	-2.69261	0
60.3644	0.00951406	-2.64149	0
60.3708	0.00947588	-2.59005	0
60.3774	0.0094186	-2.53956	0
60.3844	0.0094186	-2.48857	0
60.3916	0.00953315	-2.43796	0
60.399	0.00938042	-2.38722	0
60.4068	0.00938042	-2.3361	0
60.415	0.00939951	-2.28485	0
60.4232	0.00949497	-2.23475	0
60.4322	0.00947588	-2.18268	0
60.4412	0.0094377	-2.13264	0
60.4508	0.00947588	-2.08069	0
60.4606	0.00949497	-2.03065	0
60.4708	0.00949497	-1.98036	0
60.4816	0.00949497	-1.93	0
60.4926	0.00945679	-1.87958	0
60.5044	0.00945679	-1.82853	0
60.5166	0.00955224	-1.77823	0
60.5294	0.00947588	-1.72794	0
60.5428	0.00939951	-1.6779	0
60.557	0.00947588	-1.62685	0
60.572	0.00949497	-1.57636	0
60.588	0.00930406	-1.52582	0
60.6046	0.00939951	-1.47578	0
60.6226	0.0094186	-1.4251	0
60.6416	0.00938042	-1.37475	0
60.662	0.00945679	-1.32433	0
60.6842	0.00947588	-1.27391	0
60.7078	0.0094377	-1.22285	0
60.7334	0.0094186	-1.17224	0
60.7614	0.00936133	-1.12195	0
60.7916	0.0094377	-1.07191	0
60.8246	0.00945679	-1.02136	0
60.8618	0.00934224	-0.971195	0
60.903	0.00947588	-0.921029	0
60.9498	0.00945679	-0.869973	0
61.0026	0.0094377	-0.819807	0
61.0628	0.00953315	-0.769705	0
61.1334	0.00934224	-0.71954	0
61.216	0.00932315	-0.669502	0
61.3148	0.0094377	-0.619336	0
61.4342	0.00949497	-0.569235	0
61.582	0.0094186	-0.519133	0
61.7658	0.00939951	-0.469095	0
62.0094	0.00936133	-0.418924	0
62.325	0.00957133	-0.368808	0
62.7628	0.00951406	-0.318788	0
63.4086	0.00938042	-0.268774	0
64.4436	0.00953315	-0.218734	0
65.0528	0.00936133	-0.199168	0
65.0534	0.00949497	-0.198907	0
67.509	0.0094377	-0.148887	0
72.9966	0.00947588	-0.0988472	0
82.9966	0.00951406	-0.0628537	0
92.9966	0.00939951	-0.0463437	0
102.997	0.0094377	-0.0373993	0
112.997	0.00939951	-0.031651	0
122.997	0.00936133	-0.0276945	0
132.997	0.00930406	-0.0247418	0
142.997	0.00936133	-0.0224899	0
152.997	0.00951406	-0.0207268	0
162.997	0.00939951	-0.0192431	0
172.997	0.00934224	-0.0181597	0
182.997	0.0094186	-0.0171172	0
192.997	0.00945679	-0.0162477	0
202.997	0.00938042	-0.0154629	0
212.997	0.00932315	-0.0148958	0
222.997	0.00939951	-0.0142434	0
232.997	0.00936133	-0.0136641	0
242.997	0.0094377	-0.0132122	0
252.997	0.00951406	-0.0127819	0
262.997	0.00934224	-0.0123803	0
272.997	0.00955224	-0.0119984	0
282.997	0.0094377	-0.0117126	0
292.997	0.0094186	-0.0114173	0
302.997	0.0094186	-0.0111544	0
312.997	0.0094377	-0.0108253	0
322.997	0.00938042	-0.0105822	0
332.997	0.00938042	-0.0103543	0
342.997	0.0094377	-0.0101309	0
352.997	0.00957133	-0.00987186	0
362.997	0.00949497	-0.00974074	0
372.997	0.0094377	-0.00955106	0
382.997	0.00938042	-0.00933783	0
392.997	0.0094377	-0.00919717	0
402.997	0.0094186	-0.00905268	0
412.997	0.0094186	-0.00884773	0
422.997	0.00938042	-0.00868606	0
432.997	0.0094377	-0.00852629	0
442.997	0.00936133	-0.0083939	0
452.997	0.0094186	-0.00827933	0
462.997	0.00947588	-0.00817304	0
472.997	0.00926588	-0.00803428	0
482.997	0.00938042	-0.00786688	0
492.997	0.0094377	-0.00783442	0
502.997	0.0094186	-0.00765238	0
512.997	0.00939951	-0.00755817	0
522.997	0.00945679	-0.00748179	0
532.997	0.00951406	-0.00735449	0
542.997	0.00938042	-0.00724565	0
552.997	0.0094186	-0.00720428	0
562.997	0.00945679	-0.00713872	0
572.997	0.00947588	-0.00702606	0
582.997	0.00939951	-0.00699105	0
592.997	0.0094377	-0.00687075	0
602.997	0.00949497	-0.00677719	0
612.997	0.0094377	-0.00672499	0
622.997	0.00934224	-0.0066467	0
632.997	0.00947588	-0.00657032	0
642.997	0.0094186	-0.00645766	0
652.997	0.00939951	-0.00646276	0
662.997	0.00949497	-0.00636091	0
672.997	0.00949497	-0.0062438	0
682.997	0.00947588	-0.0061897	0
692.997	0.00947588	-0.00613432	0
702.997	0.00939951	-0.00612605	0
712.997	0.0094186	-0.0060573	0
722.997	0.00939951	-0.00593064	0
732.997	0.00953315	-0.00593319	0
742.997	0.0094186	-0.00590327	0
752.997	0.0094186	-0.00583071	0
762.997	0.00939951	-0.0058027	0
772.997	0.00938042	-0.00569704	0
782.997	0.0094377	-0.00565822	0
792.997	0.00930406	-0.00562003	0
802.997	0.00939951	-0.00555319	0
812.997	0.0094377	-0.00554619	0
822.997	0.00949497	-0.00546472	0
832.997	0.00939951	-0.00546536	0
842.997	0.00945679	-0.00537561	0
852.997	0.00939951	-0.00535206	0
862.997	0.00938042	-0.00521839	0
872.997	0.00945679	-0.00524258	0
882.997	0.00949497	-0.00520248	0
892.997	0.00951406	-0.00516302	0
902.997	0.00949497	-0.00507582	0
912.997	0.0094186	-0.00509937	0
922.997	0.00947588	-0.00507391	0
932.997	0.0094377	-0.00504718	0
942.997	0.00938042	-0.00496316	0
952.997	0.0094186	-0.00494024	0
962.997	0.00932315	-0.00488359	0
972.997	0.0094377	-0.0048715	0
982.997	0.00945679	-0.00482376	0
992.997	0.00938042	-0.00475629	0
1003	0.00936133	-0.00473211	0
1013	0.00939951	-0.00475184	0
1023	0.00938042	-0.00468819	0
1033	0.00939951	-0.00467546	0
1043	0.00945679	-0.00458571	0
1053	0.00949497	-0.00462263	0
1063	0.00938042	-0.00455707	0
1073	0.0094377	-0.00452843	0
1083	0.00934224	-0.00453941	0
1093	0.00934224	-0.00449122	0
1103	0.00945679	-0.00446747	0
1113	0.0094186	-0.00443042	0
1123	0.0094186	-0.00438936	0
1133	0.00936133	-0.00437166	0
1143	0.00953315	-0.00435855	0
1153	0.0094186	-0.00430736	0
1163	0.00945679	-0.004298	0
1173	0.0094186	-0.00426611	0
1183	0.0094186	-0.00424765	0
1193	0.0094377	-0.00420639	0
1203	0.0094377	-0.00417469	0
1213	0.00938042	-0.00416597	0
1223	0.00934224	-0.00414381	0
1233	0.00938042	-0.00410651	0
1243	0.00936133	-0.00409269	0
1253	0.0094186	-0.00406003	0
1263	0.0094377	-0.00404679	0
1273	0.00930406	-0.00403355	0
1283	0.00932315	-0.00402254	0
1293	0.0094186	-0.0040084	0
1303	0.00947588	-0.00399459	0
1309.34	0.00947588	-0.0039096	0
1309.34	0.00936133	-0.00392844	0