File: EXPERIMENTAL/Data/Cell-cycling/E-measurements/C-cell/2024-04-25_E-measurements_sample-LiPF6-electrolyte-01_C-cell_Cu-Li-Cellgard2400-separator_25muL-LiPF6_outside-glovebox_sigma-0.02_added-OCV-0.1s_02_MB_C02.txt
time/s	Ewe/V	I/mA	error
60.053	3.24005	-0.0250311	0
60.1732	0.00942767	-13.8526	0
60.1738	0.00937041	-13.7756	0
60.1744	0.00933223	-13.7202	0
60.1748	0.00935132	-13.6655	0
60.1754	0.0093895	-13.6006	0
60.1758	0.00948494	-13.5497	0
60.1764	0.00933223	-13.4911	0
60.177	0.00927497	-13.4243	0
60.1776	0.0093895	-13.3549	0
60.1782	0.00942767	-13.2868	0
60.1788	0.00935132	-13.2283	0
60.1792	0.00927497	-13.1742	0
60.1798	0.00948494	-13.1195	0
60.1804	0.0093895	-13.0584	0
60.181	0.00940858	-12.9947	0
60.1816	0.00937041	-12.9362	0
60.1822	0.00935132	-12.8738	0
60.1828	0.00940858	-12.807	0
60.1834	0.0093895	-12.7529	0
60.184	0.00940858	-12.6925	0
60.1846	0.00946585	-12.6199	0
60.1854	0.00940858	-12.5499	0
60.186	0.00937041	-12.4863	0
60.1866	0.00944676	-12.4296	0
60.1872	0.00931314	-12.373	0
60.1878	0.0093895	-12.3183	0
60.1884	0.00931314	-12.2584	0
60.189	0.0093895	-12.2056	0
60.1896	0.00942767	-12.1515	0
60.1902	0.00948494	-12.0873	0
60.1908	0.00940858	-12.0338	0
60.1914	0.00959947	-11.9772	0
60.192	0.00935132	-11.9243	0
60.1926	0.00944676	-11.8722	0
60.1932	0.00946585	-11.8104	0
60.194	0.0093895	-11.7449	0
60.1946	0.00942767	-11.6838	0
60.1954	0.00937041	-11.6208	0
60.196	0.0093895	-11.5667	0
60.1966	0.00948494	-11.5113	0
60.1972	0.00929405	-11.4521	0
60.198	0.00942767	-11.3955	0
60.1986	0.00935132	-11.3357	0
60.1994	0.00940858	-11.2752	0
60.2	0.00946585	-11.2243	0
60.2006	0.00950403	-11.1741	0
60.2014	0.00942767	-11.1085	0
60.202	0.0093895	-11.057	0
60.2028	0.00935132	-11.0016	0
60.2034	0.0093895	-10.943	0
60.204	0.00933223	-10.8896	0
60.2048	0.00950403	-10.8342	0
60.2054	0.0093895	-10.782	0
60.2062	0.0093895	-10.7279	0
60.207	0.00937041	-10.6554	0
60.2078	0.00940858	-10.5943	0
60.2086	0.00948494	-10.537	0
60.2094	0.00933223	-10.4728	0
60.21	0.00940858	-10.4206	0
60.211	0.00940858	-10.3576	0
60.2116	0.00933223	-10.3028	0
60.2124	0.00942767	-10.2507	0
60.2132	0.00937041	-10.1915	0
60.214	0.0093895	-10.1374	0
60.2148	0.0093895	-10.0744	0
60.2156	0.00946585	-10.0146	0
60.2166	0.0093895	-9.95283	0
60.2174	0.00933223	-9.89429	0
60.2182	0.00948494	-9.83829	0
60.219	0.0093895	-9.78165	0
60.2198	0.00944676	-9.72946	0
60.2206	0.00944676	-9.66901	0
60.2216	0.00940858	-9.61173	0
60.2226	0.00946585	-9.54491	0
60.2234	0.0093895	-9.49146	0
60.2242	0.00940858	-9.43864	0
60.225	0.00937041	-9.38773	0
60.2258	0.00940858	-9.33682	0
60.2266	0.00937041	-9.28527	0
60.2276	0.0093895	-9.23181	0
60.2284	0.00933223	-9.17327	0
60.2296	0.0093895	-9.10836	0
60.2304	0.00948494	-9.05426	0
60.2312	0.00944676	-9.00335	0
60.2324	0.0093895	-8.93972	0
60.2334	0.00942767	-8.87799	0
60.2344	0.00940858	-8.82644	0
60.2354	0.00942767	-8.76598	0
60.2364	0.00940858	-8.70807	0
60.2374	0.00933223	-8.65334	0
60.2384	0.00940858	-8.60116	0
60.2394	0.00937041	-8.54261	0
60.2406	0.00935132	-8.47897	0
60.2416	0.0093895	-8.42806	0
60.2426	0.00942767	-8.37525	0
60.2436	0.00946585	-8.32115	0
60.2448	0.00950403	-8.2607	0
60.246	0.00946585	-8.20788	0
60.247	0.00940858	-8.1506	0
60.2484	0.00942767	-8.08506	0
60.2494	0.00931314	-8.03096	0
60.2506	0.00942767	-7.97687	0
60.2518	0.00948494	-7.92087	0
60.253	0.00937041	-7.86996	0
60.254	0.00942767	-7.80886	0
60.2554	0.0095422	-7.75732	0
60.2566	0.00940858	-7.69495	0
60.2582	0.00950403	-7.62877	0
60.2594	0.0093895	-7.57404	0
60.2608	0.00942767	-7.51677	0
60.262	0.00937041	-7.46458	0
60.2634	0.00933223	-7.39904	0
60.2648	0.00940858	-7.34367	0
60.2664	0.0093895	-7.28258	0
60.2678	0.00940858	-7.23103	0
60.2692	0.00940858	-7.17376	0
60.2702	0.00935132	-7.12348	0
60.2718	0.00950403	-7.06939	0
60.2734	0.00944676	-7.01848	0
60.2746	0.00927497	-6.9663	0
60.276	0.00942767	-6.91539	0
60.2772	0.00940858	-6.8632	0
60.2788	0.00948494	-6.80911	0
60.2802	0.00935132	-6.75884	0
60.2818	0.00942767	-6.70156	0
60.2832	0.00944676	-6.65065	0
60.285	0.00942767	-6.59274	0
60.2866	0.00940858	-6.53674	0
60.2884	0.00946585	-6.47946	0
60.2902	0.00942767	-6.42219	0
60.292	0.00942767	-6.36364	0
60.2936	0.00950403	-6.3121	0
60.2956	0.00940858	-6.25546	0
60.2974	0.00935132	-6.20264	0
60.299	0.00940858	-6.14473	0
60.301	0.00935132	-6.09127	0
60.3032	0.00942767	-6.03209	0
60.305	0.00940858	-5.98181	0
60.3068	0.00948494	-5.93027	0
60.3086	0.00940858	-5.87999	0
60.3108	0.00946585	-5.82208	0
60.3128	0.00944676	-5.77181	0
60.3148	0.0093895	-5.71708	0
60.317	0.00935132	-5.66299	0
60.319	0.00942767	-5.60762	0
60.3214	0.00931314	-5.55544	0
60.3234	0.00933223	-5.50325	0
60.3258	0.00935132	-5.44662	0
60.328	0.00948494	-5.39316	0
60.3306	0.00937041	-5.33461	0
60.3332	0.0093895	-5.28307	0
60.336	0.00937041	-5.21943	0
60.3388	0.00940858	-5.1647	0
60.3414	0.00946585	-5.11252	0
60.344	0.00950403	-5.0597	0
60.3466	0.00944676	-5.00879	0
60.3492	0.00929405	-4.9566	0
60.3522	0.00937041	-4.90251	0
60.355	0.00944676	-4.85224	0
60.358	0.0093895	-4.80069	0
60.361	0.00948494	-4.73514	0
60.3648	0.00927497	-4.68423	0
60.3678	0.00940858	-4.63141	0
60.371	0.00944676	-4.57859	0
60.3746	0.00944676	-4.52068	0
60.3782	0.00942767	-4.47041	0
60.3818	0.0093895	-4.41822	0
60.3854	0.0093895	-4.36668	0
60.3892	0.00937041	-4.31322	0
60.393	0.00942767	-4.26295	0
60.3972	0.00933223	-4.19994	0
60.402	0.0093895	-4.14649	0
60.4056	0.00940858	-4.09367	0
60.4104	0.00937041	-4.03639	0
60.415	0.0093895	-3.98612	0
60.4194	0.00935132	-3.93585	0
60.4238	0.00931314	-3.88494	0
60.4282	0.0093895	-3.83403	0
60.4334	0.00942767	-3.78248	0
60.4388	0.00942767	-3.72902	0
60.4446	0.00946585	-3.67557	0
60.4492	0.00935132	-3.62084	0
60.456	0.00942767	-3.56738	0
60.4616	0.00935132	-3.51329	0
60.4676	0.00927497	-3.46302	0
60.5036	0.00929405	-3.2031	0
60.5108	0.00937041	-3.15124	0
60.5184	0.00940858	-3.10041	0
60.526	0.00937041	-3.04957	0
60.5342	0.00942767	-2.99912	0
60.5424	0.00950403	-2.94853	0
60.551	0.0093895	-2.89789	0
60.56	0.00937041	-2.8475	0
60.5694	0.00946585	-2.79743	0
60.5792	0.00929405	-2.74614	0
60.5894	0.00940858	-2.69575	0
60.5998	0.00946585	-2.64562	0
60.6108	0.00940858	-2.59561	0
60.6224	0.00944676	-2.54547	0
60.6344	0.00937041	-2.49476	0
60.6472	0.00935132	-2.44361	0
60.6608	0.00937041	-2.3922	0
60.675	0.00940858	-2.34187	0
60.6896	0.00946585	-2.29117	0
60.7056	0.00927497	-2.23957	0
60.7222	0.00937041	-2.1893	0
60.7394	0.00937041	-2.13898	0
60.758	0.00935132	-2.08897	0
60.778	0.00935132	-2.03737	0
60.799	0.0093895	-1.98698	0
60.8214	0.00929405	-1.93671	0
60.8456	0.00929405	-1.88651	0
60.8706	0.00944676	-1.83644	0
60.8984	0.00940858	-1.78637	0
60.9278	0.00942767	-1.73604	0
60.9594	0.00942767	-1.68565	0
60.9948	0.00935132	-1.63532	0
61.0318	0.00942767	-1.58532	0
61.0722	0.00950403	-1.53524	0
61.1176	0.00940858	-1.48523	0
61.1664	0.0093895	-1.43522	0
61.2202	0.00937041	-1.38503	0
61.2804	0.00940858	-1.33489	0
61.3466	0.00944676	-1.28482	0
61.4208	0.00940858	-1.23481	0
61.5046	0.00942767	-1.18461	0
61.5988	0.00935132	-1.13434	0
61.7056	0.00944676	-1.08421	0
61.8272	0.0093895	-1.03414	0
61.969	0.00931314	-0.984063	0
62.1292	0.0093895	-0.933991	0
62.3192	0.00929405	-0.883727	0
62.5426	0.00950403	-0.833082	0
62.8128	0.00946585	-0.782819	0
63.1318	0.00933223	-0.732746	0
63.5218	0.00940858	-0.68261	0
63.9916	0.00940858	-0.632411	0
64.5904	0.00935132	-0.582338	0
65.0528	0.00940858	-0.550971	0
65.0534	0.00942767	-0.551989	0
65.8926	0.00944676	-0.50198	0
67.0258	0.00946585	-0.451971	0
68.5992	0.0093895	-0.401951	0
70.6844	0.00933223	-0.35193	0
73.611	0.00948494	-0.301896	0
77.7684	0.00942767	-0.251856	0
84.0014	0.00946585	-0.201834	0
93.6894	0.00933223	-0.151826	0
103.689	0.00946585	-0.119889	0
113.689	0.00937041	-0.0986405	0
123.689	0.00937041	-0.0841714	0
133.689	0.00931314	-0.0731397	0
143.689	0.00929405	-0.0647752	0
153.689	0.00929405	-0.0580085	0
163.689	0.00931314	-0.0525086	0
173.689	0.00942767	-0.047989	0
183.689	0.00935132	-0.044341	0
193.689	0.00950403	-0.0409397	0
203.689	0.00933223	-0.0381418	0
213.689	0.00946585	-0.0355061	0
223.689	0.00944676	-0.0333591	0
233.689	0.0093895	-0.0314221	0
243.689	0.0093895	-0.0297307	0
253.689	0.00933223	-0.0279337	0
263.689	0.00929405	-0.0265267	0
273.689	0.00937041	-0.0252617	0
283.689	0.0093895	-0.0240202	0
293.689	0.00929405	-0.0227208	0
303.689	0.00937041	-0.02194	0
313.689	0.00929405	-0.0208945	0
323.689	0.00940858	-0.0200075	0
333.689	0.00937041	-0.0191885	0
343.689	0.00937041	-0.0184326	0
353.689	0.00937041	-0.0177275	0
363.689	0.00942767	-0.0170193	0
373.689	0.00944676	-0.0163428	0
383.689	0.00929405	-0.0158032	0
393.689	0.0093895	-0.0152305	0
403.689	0.00946585	-0.0147393	0
413.689	0.0093895	-0.0142194	0
423.689	0.00937041	-0.0138058	0
433.689	0.00940858	-0.0133546	0
443.689	0.00935132	-0.012962	0
453.689	0.00940858	-0.0125115	0
463.689	0.00935132	-0.0122576	0
473.689	0.00944676	-0.0119661	0
483.689	0.00935132	-0.0114952	0
493.689	0.00927497	-0.0111071	0
503.689	0.00942767	-0.0108404	0
513.689	0.00933223	-0.0105299	0
523.689	0.00931314	-0.0102792	0
533.689	0.00937041	-0.0100081	0
543.689	0.00946585	-0.00971858	0
553.689	0.00933223	-0.00952068	0
563.689	0.00940858	-0.00926042	0
573.689	0.00935132	-0.00901415	0
583.689	0.00933223	-0.00889389	0
593.689	0.00935132	-0.00852099	0
603.689	0.00929405	-0.00837464	0
613.689	0.00937041	-0.00822955	0
623.689	0.00935132	-0.00802274	0
633.689	0.0093895	-0.00781593	0
643.689	0.00944676	-0.00769503	0
653.689	0.00937041	-0.00753913	0
663.689	0.00940858	-0.00734823	0
673.689	0.0093895	-0.00726805	0
683.689	0.00940858	-0.0070517	0
693.689	0.00933223	-0.00683471	0
703.689	0.00935132	-0.00677425	0
713.689	0.0093895	-0.00668644	0
723.689	0.00933223	-0.00655217	0
733.689	0.00944676	-0.00646436	0
743.689	0.00937041	-0.006318	0
753.689	0.00933223	-0.00618755	0
763.689	0.00935132	-0.00618437	0
773.689	0.00935132	-0.00628237	0
783.689	0.00940858	-0.00590566	0
793.689	0.00940858	-0.00578539	0
803.689	0.00937041	-0.00569821	0
813.689	0.00931314	-0.00562758	0
823.689	0.00925588	-0.00547358	0
833.689	0.00935132	-0.00542586	0
843.689	0.00937041	-0.00529159	0
853.689	0.00937041	-0.00521269	0
863.689	0.00933223	-0.00518151	0
873.689	0.00937041	-0.0050256	0
883.689	0.00933223	-0.00499697	0
893.689	0.0093895	-0.00489452	0
903.689	0.00944676	-0.0048557	0
913.689	0.0093895	-0.00477807	0
923.689	0.00935132	-0.00464762	0
933.689	0.00944676	-0.00454072	0
943.689	0.00942767	-0.00451717	0
953.689	0.00935132	-0.00457635	0
963.689	0.00940858	-0.0044642	0
973.689	0.00948494	-0.00438989	0
983.689	0.00944676	-0.00433914	0
993.689	0.00933223	-0.00426483	0
1003.69	0.0093895	-0.00423726	0
1013.69	0.00929405	-0.00416537	0
1023.69	0.00933223	-0.00411181	0
1033.69	0.00944676	-0.00405425	0
1043.69	0.00933223	-0.004027	0
1053.69	0.00937041	-0.00394326	0
1054.31	0.00940858	-0.00390264	0
1054.31	0.0092177	-0.00390977	0