File: EXPERIMENTAL/Data/Cell-cycling/E-measurements/C-cell/2024-05-01_E-measurements_sample-LiPF6-02_C-cell_Cu-Li_Cellgard2400_25muL-LiPF6-electrolyte_outside-glovebox_sigma-0.02_added-OCV-0.1s_04_CP_C01.txt
time/s	Ewe/V	I/mA	error
958.877	0.00570265	-0.194688	0
958.877	-0.00375818	-0.19595	0
958.877	-0.0114861	-0.195953	0
958.878	-0.017347	-0.195955	0
958.878	-0.0222725	-0.195958	0
958.878	-0.0267016	-0.195965	0
958.878	-0.0305008	-0.195958	0
958.878	-0.0340135	-0.19596	0
958.879	-0.0372017	-0.195958	0
958.879	-0.039989	-0.195962	0
958.879	-0.0426999	-0.195965	0
958.879	-0.0451245	-0.195966	0
958.879	-0.0471863	-0.195967	0
958.88	-0.0493054	-0.195965	0
958.88	-0.0511191	-0.195961	0
958.88	-0.0528564	-0.195967	0
958.88	-0.0544982	-0.195963	0
958.88	-0.0558536	-0.19596	0
958.881	-0.0573237	-0.195963	0
958.881	-0.0586409	-0.19597	0
958.881	-0.0598246	-0.195965	0
958.881	-0.06097	-0.195962	0
958.881	-0.0620201	-0.195967	0
958.882	-0.0639864	-0.195965	0
958.882	-0.0656473	-0.195961	0
958.883	-0.0671555	-0.195968	0
958.883	-0.068511	-0.195959	0
958.883	-0.0698283	-0.195968	0
958.884	-0.0709928	-0.195965	0
958.884	-0.0725583	-0.195968	0
958.885	-0.0737992	-0.195963	0
958.886	-0.0751356	-0.195964	0
958.886	-0.0761856	-0.195971	0
958.887	-0.0771974	-0.195963	0
958.888	-0.0784956	-0.195963	0
958.888	-0.0795074	-0.195963	0
958.889	-0.0805956	-0.195961	0
958.89	-0.0817793	-0.195963	0
958.891	-0.082982	-0.195963	0
958.892	-0.084032	-0.195972	0
958.893	-0.0851011	-0.19597	0
958.894	-0.0861702	-0.195968	0
958.895	-0.0872775	-0.195961	0
958.896	-0.0884229	-0.195961	0
958.897	-0.0895111	-0.195963	0
958.898	-0.0906184	-0.195964	0
958.9	-0.0916302	-0.195965	0
958.901	-0.0926993	-0.195968	0
958.902	-0.0938066	-0.195969	0
958.903	-0.0948757	-0.195965	0
958.904	-0.0959448	-0.195966	0
958.906	-0.0971094	-0.195971	0
958.907	-0.0982548	-0.195961	0
958.909	-0.0992667	-0.195968	0
958.91	-0.100336	-0.195964	0
958.911	-0.101348	-0.195969	0
958.912	-0.102359	-0.195973	0
958.914	-0.10339	-0.195967	0
958.915	-0.104402	-0.19597	0
958.917	-0.105739	-0.195968	0
958.919	-0.107018	-0.195965	0
958.92	-0.108049	-0.195967	0
958.922	-0.109079	-0.195967	0
958.923	-0.110244	-0.195964	0
958.925	-0.111332	-0.195967	0
958.926	-0.112401	-0.195966	0
958.928	-0.113604	-0.195968	0
958.93	-0.114711	-0.195968	0
958.931	-0.115799	-0.195967	0
958.933	-0.117002	-0.195962	0
958.935	-0.118167	-0.195962	0
958.937	-0.119236	-0.195969	0
958.938	-0.120248	-0.195967	0
958.94	-0.121393	-0.195961	0
958.942	-0.122462	-0.195964	0
958.944	-0.123627	-0.195965	0
958.945	-0.124677	-0.195972	0
958.947	-0.125746	-0.195965	0
958.949	-0.12691	-0.195963	0
958.951	-0.12796	-0.19597	0
958.953	-0.128991	-0.195965	0
958.955	-0.130022	-0.195966	0
958.956	-0.131034	-0.195964	0
958.958	-0.132084	-0.195965	0
958.96	-0.133096	-0.195966	0
958.962	-0.134146	-0.195965	0
958.964	-0.135234	-0.195962	0
958.966	-0.136456	-0.195965	0
958.968	-0.137582	-0.195966	0
958.971	-0.138651	-0.195966	0
958.973	-0.139663	-0.19597	0
958.975	-0.140732	-0.195963	0
958.977	-0.141763	-0.195967	0
958.979	-0.14289	-0.195965	0
958.981	-0.143921	-0.195968	0
958.983	-0.145028	-0.195963	0
958.986	-0.146135	-0.195966	0
958.988	-0.147281	-0.195958	0
958.991	-0.148292	-0.195967	0
958.993	-0.1494	-0.195968	0
958.995	-0.150507	-0.195963	0
958.998	-0.151595	-0.195968	0
959	-0.152645	-0.195967	0
959.003	-0.153752	-0.195965	0
959.005	-0.154898	-0.195967	0
959.008	-0.15591	-0.195967	0
959.01	-0.157074	-0.195973	0
959.013	-0.158182	-0.195973	0
959.016	-0.159365	-0.195965	0
959.019	-0.160472	-0.195965	0
959.022	-0.161675	-0.195965	0
959.025	-0.162744	-0.195974	0
959.027	-0.163833	-0.195963	0
959.031	-0.164997	-0.195966	0
959.034	-0.166181	-0.195966	0
959.037	-0.167212	-0.195965	0
959.04	-0.1683	-0.195966	0
959.043	-0.169407	-0.195965	0
959.046	-0.170419	-0.195963	0
959.049	-0.171431	-0.195967	0
959.052	-0.172443	-0.195966	0
959.055	-0.173454	-0.195968	0
959.058	-0.174523	-0.195963	0
959.062	-0.175669	-0.195965	0
959.065	-0.176738	-0.195961	0
959.069	-0.177884	-0.195962	0
959.072	-0.178914	-0.195966	0
959.076	-0.179964	-0.195963	0
959.079	-0.181053	-0.195961	0
959.083	-0.182084	-0.195962	0
959.087	-0.183229	-0.195966	0
959.091	-0.184317	-0.195969	0
959.095	-0.185329	-0.195973	0
959.099	-0.18636	-0.195965	0
959.103	-0.187563	-0.195965	0
959.108	-0.188575	-0.195963	0
959.112	-0.189777	-0.195969	0
959.116	-0.190904	-0.195967	0
959.12	-0.191954	-0.195967	0
959.125	-0.192985	-0.195971	0
959.13	-0.193996	-0.195965	0
959.134	-0.195085	-0.195963	0
959.14	-0.196135	-0.19597	0
959.145	-0.197185	-0.195963	0
959.149	-0.198215	-0.195964	0
959.154	-0.199265	-0.195972	0
959.16	-0.200392	-0.195964	0
959.166	-0.201461	-0.195968	0
959.171	-0.202568	-0.195965	0
959.177	-0.203618	-0.195967	0
959.183	-0.204687	-0.195967	0
959.189	-0.205756	-0.195961	0
959.195	-0.206768	-0.19597	0
959.201	-0.207837	-0.195976	0
959.208	-0.208849	-0.195969	0
959.215	-0.209937	-0.195964	0
959.222	-0.210968	-0.195974	0
959.229	-0.212037	-0.195967	0
959.237	-0.213049	-0.195965	0
959.244	-0.214099	-0.195969	0
959.252	-0.215111	-0.195966	0
959.261	-0.21618	-0.195969	0
959.269	-0.217268	-0.195975	0
959.279	-0.21828	-0.195964	0
959.289	-0.219407	-0.195974	0
959.299	-0.220457	-0.195968	0
959.31	-0.221468	-0.195964	0
959.322	-0.222499	-0.195962	0
959.334	-0.22353	-0.195965	0
959.348	-0.224637	-0.195968	0
959.364	-0.225649	-0.19597	0
959.383	-0.226699	-0.19597	0
959.408	-0.227711	-0.195964	0
959.45	-0.228723	-0.195963	0
959.532	-0.227673	-0.195972	0
959.572	-0.226585	-0.195971	0
959.603	-0.225573	-0.195968	0
959.638	-0.224561	-0.195967	0
959.669	-0.223549	-0.195967	0
959.704	-0.222537	-0.195971	0
959.743	-0.221507	-0.195961	0
959.783	-0.220495	-0.195963	0
959.827	-0.219445	-0.195968	0
959.874	-0.218414	-0.195967	0
959.933	-0.217307	-0.195962	0
959.993	-0.216276	-0.195966	0
960.057	-0.215264	-0.19597	0
960.123	-0.214252	-0.195959	0
960.204	-0.21324	-0.195963	0
960.281	-0.212228	-0.195969	0
960.367	-0.211197	-0.195968	0
960.462	-0.210186	-0.195966	0
960.558	-0.209174	-0.195967	0
960.663	-0.208162	-0.195965	0
960.783	-0.20715	-0.195963	0
960.904	-0.206138	-0.195969	0
961.032	-0.205107	-0.19597	0
961.172	-0.204096	-0.195963	0
961.317	-0.203084	-0.195965	0
961.466	-0.202053	-0.195966	0
961.625	-0.201041	-0.195967	0
961.82	-0.199991	-0.195965	0
961.999	-0.198979	-0.19597	0
962.196	-0.197929	-0.195967	0
962.423	-0.196917	-0.195966	0
962.63	-0.195905	-0.19597	0
962.86	-0.194855	-0.195971	0
963.117	-0.193844	-0.195968	0
963.366	-0.192832	-0.195965	0
963.644	-0.191801	-0.195975	0
963.933	-0.190751	-0.19597	0
964.247	-0.189682	-0.195969	0
964.58	-0.188651	-0.195967	0
964.901	-0.187639	-0.195967	0
965.288	-0.18657	-0.195963	0
965.703	-0.185558	-0.195969	0
966.123	-0.184508	-0.195965	0
966.568	-0.183496	-0.195971	0
967.023	-0.182465	-0.19597	0
967.534	-0.181415	-0.195965	0
968.093	-0.180404	-0.195975	0
968.678	-0.179392	-0.195966	0
969.308	-0.178342	-0.195968	0
970.015	-0.17733	-0.195966	0
970.691	-0.176299	-0.195967	0
971.526	-0.175287	-0.195966	0
972.309	-0.174275	-0.195975	0
973.23	-0.173225	-0.195968	0
974.217	-0.172137	-0.195963	0
975.338	-0.171106	-0.195971	0
976.369	-0.170094	-0.195969	0
977.592	-0.169083	-0.195966	0
978.878	-0.168071	-0.195968	0
980.197	-0.167059	-0.195967	0
981.651	-0.166047	-0.195969	0
983.146	-0.165016	-0.195963	0
984.933	-0.164004	-0.195969	0
986.72	-0.162973	-0.195967	0
988.764	-0.161962	-0.195974	0
990.919	-0.16095	-0.19597	0
993.318	-0.159938	-0.195966	0
995.729	-0.158926	-0.195966	0
998.686	-0.157914	-0.195967	0
1001.91	-0.156902	-0.19597	0
1005.51	-0.155891	-0.195969	0
1009.61	-0.15486	-0.195967	0
1014.7	-0.153829	-0.19597	0
1020.25	-0.152817	-0.195963	0
1027.45	-0.151805	-0.19597	0
1036.68	-0.150717	-0.195971	0
1046.68	-0.150125	-0.19597	0
1056.5	-0.149113	-0.195968	0
1066.5	-0.148846	-0.195971	0
1076.5	-0.148178	-0.195971	0
1086.5	-0.14772	-0.195969	0
1096.5	-0.147242	-0.195975	0
1106.5	-0.146746	-0.195969	0
1116.5	-0.146422	-0.195969	0
1126.5	-0.145982	-0.195968	0
1136.5	-0.145562	-0.195966	0
1146.5	-0.145257	-0.195967	0
1156.5	-0.144875	-0.195972	0
1166.5	-0.144531	-0.195968	0
1176.5	-0.144341	-0.195966	0
1186.5	-0.14394	-0.195967	0
1196.5	-0.143653	-0.195968	0
1206.5	-0.143252	-0.195967	0
1216.5	-0.143004	-0.195974	0
1226.5	-0.14268	-0.195972	0
1236.5	-0.142451	-0.19597	0
1246.5	-0.142107	-0.19597	0
1256.5	-0.141897	-0.195967	0
1266.5	-0.141477	-0.195968	0
1276.5	-0.141267	-0.195965	0
1286.5	-0.141	-0.195971	0
1296.5	-0.140599	-0.195972	0
1306.5	-0.140331	-0.195976	0
1316.5	-0.140141	-0.195972	0
1326.5	-0.139587	-0.195966	0
1336.5	-0.139491	-0.195972	0
1346.5	-0.139014	-0.195968	0
1356.5	-0.138804	-0.19597	0
1366.5	-0.138556	-0.195971	0
1376.5	-0.138251	-0.19597	0
1386.5	-0.138002	-0.19597	0
1396.5	-0.137582	-0.195971	0
1406.5	-0.137258	-0.195972	0
1416.5	-0.136991	-0.195976	0
1426.5	-0.136761	-0.195967	0
1436.5	-0.136361	-0.195973	0
1446.5	-0.136017	-0.19597	0
1456.5	-0.135731	-0.195971	0
1466.5	-0.135463	-0.195964	0
1476.5	-0.135043	-0.19597	0
1486.5	-0.134642	-0.195971	0
1496.5	-0.134528	-0.195966	0
1506.5	-0.134337	-0.195964	0
1516.5	-0.133993	-0.195968	0
1526.5	-0.133421	-0.195967	0
1536.5	-0.133287	-0.195969	0
1546.5	-0.132924	-0.195969	0
1556.5	-0.132657	-0.195971	0
1566.5	-0.132256	-0.195971	0
1576.5	-0.13195	-0.195968	0
1586.5	-0.131855	-0.19597	0
1596.5	-0.131378	-0.19597	0
1606.5	-0.13111	-0.195968	0
1616.5	-0.130786	-0.195971	0
1626.5	-0.130385	-0.195966	0
1636.5	-0.130137	-0.195975	0
1646.5	-0.129793	-0.195972	0
1656.5	-0.129411	-0.195972	0
1666.5	-0.129068	-0.195971	0
1676.5	-0.128686	-0.195965	0
1686.5	-0.128514	-0.195974	0
1696.5	-0.128132	-0.195974	0
1706.5	-0.127808	-0.195969	0
1716.5	-0.127598	-0.195973	0
1726.5	-0.127235	-0.195965	0
1736.5	-0.12691	-0.195967	0
1746.5	-0.126605	-0.195963	0
1756.5	-0.126414	-0.195968	0
1766.5	-0.126051	-0.195974	0
1776.5	-0.125746	-0.195972	0
1786.5	-0.125498	-0.195972	0
1796.5	-0.125192	-0.195969	0
1806.5	-0.12483	-0.195972	0
1816.5	-0.124486	-0.195967	0
1826.5	-0.124295	-0.19597	0
1836.5	-0.12378	-0.19597	0
1846.5	-0.123684	-0.19597	0
1856.5	-0.12336	-0.195971	0
1866.5	-0.123054	-0.195961	0
1876.5	-0.122768	-0.195975	0
1886.5	-0.12252	-0.195973	0
1896.5	-0.122176	-0.195967	0
1906.5	-0.12187	-0.195972	0
1916.5	-0.12168	-0.195968	0
1926.5	-0.12145	-0.19597	0
1936.5	-0.121126	-0.195965	0
1946.5	-0.120687	-0.195972	0
1956.5	-0.120572	-0.195973	0
1966.5	-0.12019	-0.19597	0
1976.5	-0.119885	-0.195968	0
1986.5	-0.119732	-0.195976	0
1996.5	-0.119408	-0.19597	0
2006.5	-0.119121	-0.19597	0
2016.5	-0.118911	-0.195968	0
2026.5	-0.118568	-0.195962	0
2036.5	-0.118281	-0.195967	0
2046.5	-0.117919	-0.195969	0
2056.5	-0.117728	-0.195972	0
2066.5	-0.117499	-0.19597	0
2076.5	-0.117155	-0.195968	0
2086.5	-0.116983	-0.195965	0
2096.5	-0.116639	-0.195974	0
2106.5	-0.116449	-0.19597	0
2116.5	-0.116105	-0.195967	0
2126.5	-0.115838	-0.195966	0
2136.5	-0.115513	-0.195969	0
2146.5	-0.115265	-0.195974	0
2156.5	-0.115131	-0.195967	0
2166.5	-0.114749	-0.195972	0
2176.5	-0.114501	-0.195967	0
2186.5	-0.114291	-0.195971	0
2196.5	-0.113986	-0.195969	0
2206.5	-0.113871	-0.195968	0
2216.5	-0.113604	-0.195963	0
2226.5	-0.113337	-0.195968	0
2236.5	-0.113012	-0.195973	0
2246.5	-0.112726	-0.195967	0
2256.5	-0.112535	-0.195965	0
2266.5	-0.112344	-0.195967	0
2276.5	-0.112058	-0.195968	0
2286.5	-0.111733	-0.195968	0
2296.5	-0.111657	-0.195965	0
2306.5	-0.11137	-0.195972	0
2316.5	-0.111046	-0.195976	0
2326.5	-0.110931	-0.195966	0
2336.5	-0.110721	-0.195971	0
2346.5	-0.110339	-0.195974	0
2356.5	-0.110072	-0.195973	0
2366.5	-0.109919	-0.195976	0
2376.5	-0.109671	-0.19597	0
2386.5	-0.109576	-0.19597	0
2396.5	-0.109213	-0.19597	0
2406.5	-0.108889	-0.195972	0
2416.5	-0.108659	-0.19597	0
2426.5	-0.108488	-0.195965	0
2436.5	-0.108354	-0.195966	0
2446.5	-0.10801	-0.195965	0
2456.5	-0.1078	-0.195971	0
2466.5	-0.107667	-0.195963	0
2476.5	-0.107457	-0.19597	0
2486.5	-0.107209	-0.19597	0
2496.5	-0.107113	-0.195967	0
2506.5	-0.106789	-0.195968	0
2516.5	-0.106579	-0.195974	0
2526.5	-0.106369	-0.195975	0
2536.5	-0.10612	-0.195971	0
2546.5	-0.105834	-0.195967	0
2556.5	-0.105758	-0.195968	0
2566.5	-0.10549	-0.195969	0
2576.5	-0.105338	-0.195967	0
2586.5	-0.105166	-0.195963	0
2596.5	-0.104822	-0.195969	0
2606.5	-0.10465	-0.195964	0
2616.5	-0.104459	-0.195972	0
2626.5	-0.104269	-0.195974	0
2636.5	-0.104078	-0.195965	0
2646.5	-0.10381	-0.195972	0
2656.5	-0.103658	-0.195971	0
2666.5	-0.103505	-0.195969	0
2676.5	-0.103142	-0.195971	0
2686.5	-0.103142	-0.195964	0
2696.5	-0.102779	-0.195971	0
2706.5	-0.102627	-0.195968	0
2716.5	-0.102474	-0.195973	0
2726.5	-0.102168	-0.195968	0
2736.5	-0.102092	-0.195965	0
2746.5	-0.101997	-0.19597	0
2756.5	-0.101653	-0.195975	0
2758.88	-0.101634	-0.195963	0