File: EXPERIMENTAL/Data/Battery-cycling/SEIDEP/2024-04-22_SEIDEP-5_T-cell_Li-Cu_1-mm-PP-spacer_75muL-4MLiFSI-DME_inside-glovebox_03_CP_C05.txt
time/s	Ewe/V	I/mA	error
7271.05	-0.0352959	-0.195996	0
7271.05	-0.0370154	-0.196001	0
7271.06	-0.0383909	-0.195999	0
7271.06	-0.0398238	-0.196001	0
7271.06	-0.0409128	-0.195997	0
7271.06	-0.0421164	-0.196002	0
7271.06	-0.0431481	-0.196001	0
7271.06	-0.0445237	-0.195994	0
7271.06	-0.0460521	-0.195996	0
7271.06	-0.0472748	-0.196003	0
7271.06	-0.0486122	-0.195996	0
7271.06	-0.0497585	-0.195998	0
7271.06	-0.0509048	-0.195999	0
7271.06	-0.0520702	-0.196	0
7271.06	-0.0531783	-0.195998	0
7271.06	-0.0541909	-0.196	0
7271.06	-0.0553563	-0.196006	0
7271.06	-0.0566173	-0.196001	0
7271.06	-0.0577062	-0.195998	0
7271.07	-0.0589672	-0.195998	0
7271.07	-0.060209	-0.196004	0
7271.07	-0.0614509	-0.195999	0
7271.07	-0.0626354	-0.196004	0
7271.07	-0.0637817	-0.195996	0
7271.07	-0.0650235	-0.196002	0
7271.07	-0.0660361	-0.196	0
7271.07	-0.0671633	-0.195999	0
7271.07	-0.0682905	-0.195997	0
7271.07	-0.0693222	-0.195997	0
7271.07	-0.0704112	-0.195998	0
7271.07	-0.0714619	-0.195993	0
7271.07	-0.0724745	-0.196003	0
7271.08	-0.0736781	-0.195995	0
7271.08	-0.07492	-0.196002	0
7271.08	-0.0761809	-0.196	0
7271.08	-0.0773463	-0.196007	0
7271.08	-0.0783589	-0.196002	0
7271.08	-0.0794479	-0.196001	0
7271.08	-0.0805751	-0.196003	0
7271.08	-0.0816832	-0.195991	0
7271.08	-0.0829823	-0.196002	0
7271.08	-0.0841478	-0.195997	0
7271.09	-0.0851603	-0.195999	0
7271.09	-0.0864022	-0.196003	0
7271.09	-0.0875294	-0.196	0
7271.09	-0.0885611	-0.196003	0
7271.09	-0.089822	-0.196001	0
7271.09	-0.0910256	-0.195994	0
7271.09	-0.0920955	-0.196004	0
7271.09	-0.0931272	-0.195996	0
7271.09	-0.0942162	-0.196	0
7271.1	-0.0952478	-0.196	0
7271.1	-0.0963751	-0.196001	0
7271.1	-0.0974832	-0.195999	0
7271.1	-0.0984957	-0.195999	0
7271.1	-0.0996038	-0.195997	0
7271.1	-0.100712	-0.196005	0
7271.1	-0.101724	-0.195999	0
7271.1	-0.102775	-0.196005	0
7271.11	-0.103826	-0.196007	0
7271.11	-0.104972	-0.196	0
7271.11	-0.106023	-0.196001	0
7271.11	-0.107131	-0.196002	0
7271.11	-0.108144	-0.196002	0
7271.11	-0.109214	-0.196005	0
7271.11	-0.110379	-0.195998	0
7271.11	-0.11164	-0.195999	0
7271.12	-0.112653	-0.195994	0
7271.12	-0.113799	-0.195999	0
7271.12	-0.114831	-0.196005	0
7271.12	-0.115862	-0.196001	0
7271.12	-0.116894	-0.195997	0
7271.12	-0.117945	-0.195992	0
7271.13	-0.118957	-0.195997	0
7271.13	-0.119989	-0.195999	0
7271.13	-0.121269	-0.195994	0
7271.13	-0.122282	-0.196005	0
7271.13	-0.123447	-0.195993	0
7271.13	-0.124517	-0.196001	0
7271.13	-0.125587	-0.195997	0
7271.14	-0.126618	-0.195999	0
7271.14	-0.12765	-0.195998	0
7271.14	-0.128777	-0.196003	0
7271.14	-0.130038	-0.195999	0
7271.14	-0.131089	-0.195998	0
7271.15	-0.132102	-0.195997	0
7271.15	-0.133114	-0.196001	0
7271.15	-0.134146	-0.195999	0
7271.15	-0.135292	-0.195999	0
7271.15	-0.136324	-0.195996	0
7271.15	-0.137489	-0.196005	0
7271.16	-0.13854	-0.196003	0
7271.16	-0.139629	-0.196003	0
7271.16	-0.140661	-0.195996	0
7271.16	-0.141692	-0.196005	0
7271.17	-0.142858	-0.195999	0
7271.17	-0.143966	-0.196003	0
7271.17	-0.145093	-0.196002	0
7271.17	-0.146125	-0.196001	0
7271.17	-0.147195	-0.195996	0
7271.18	-0.148207	-0.195998	0
7271.18	-0.149239	-0.196001	0
7271.18	-0.15029	-0.196001	0
7271.18	-0.151341	-0.196005	0
7271.19	-0.152372	-0.196007	0
7271.19	-0.153499	-0.196006	0
7271.19	-0.154646	-0.195999	0
7271.19	-0.155716	-0.195998	0
7271.2	-0.156862	-0.195999	0
7271.2	-0.158046	-0.196005	0
7271.2	-0.159097	-0.196001	0
7271.2	-0.160129	-0.196004	0
7271.21	-0.161256	-0.196005	0
7271.21	-0.162422	-0.196	0
7271.21	-0.163434	-0.196001	0
7271.22	-0.164504	-0.196007	0
7271.22	-0.165536	-0.195994	0
7271.22	-0.166586	-0.195999	0
7271.23	-0.167599	-0.196001	0
7271.23	-0.16865	-0.196	0
7271.23	-0.169777	-0.196002	0
7271.24	-0.170828	-0.196005	0
7271.24	-0.171955	-0.195999	0
7271.24	-0.172968	-0.195998	0
7271.25	-0.173999	-0.195998	0
7271.25	-0.175031	-0.196003	0
7271.25	-0.176063	-0.196004	0
7271.26	-0.177094	-0.195999	0
7271.26	-0.178164	-0.195999	0
7271.27	-0.179177	-0.196	0
7271.27	-0.180266	-0.196003	0
7271.27	-0.181317	-0.195998	0
7271.28	-0.182444	-0.196001	0
7271.28	-0.183533	-0.196004	0
7271.29	-0.184641	-0.195997	0
7271.29	-0.185692	-0.196001	0
7271.3	-0.186704	-0.196005	0
7271.3	-0.187755	-0.196001	0
7271.31	-0.188825	-0.196005	0
7271.31	-0.189837	-0.196003	0
7271.32	-0.190984	-0.195996	0
7271.33	-0.192035	-0.196001	0
7271.33	-0.193143	-0.195997	0
7271.34	-0.194155	-0.196003	0
7271.35	-0.195168	-0.195999	0
7271.35	-0.196199	-0.195997	0
7271.36	-0.19725	-0.195998	0
7271.37	-0.198301	-0.196001	0
7271.38	-0.199314	-0.196001	0
7271.38	-0.200326	-0.196005	0
7271.39	-0.201339	-0.195999	0
7271.41	-0.202389	-0.196003	0
7271.42	-0.203478	-0.195996	0
7271.43	-0.204491	-0.196	0
7271.47	-0.205504	-0.195999	0
7271.5	-0.204491	-0.195998	0
7271.52	-0.203478	-0.196008	0
7271.53	-0.202466	-0.195999	0
7271.54	-0.201434	-0.196006	0
7271.54	-0.200383	-0.196005	0
7271.55	-0.199371	-0.196003	0
7271.56	-0.198282	-0.196003	0
7271.57	-0.197193	-0.196003	0
7271.57	-0.196047	-0.195995	0
7271.58	-0.194996	-0.196002	0
7271.58	-0.193869	-0.195998	0
7271.59	-0.192799	-0.196	0
7271.59	-0.191767	-0.196005	0
7271.6	-0.190678	-0.196	0
7271.6	-0.189665	-0.196003	0
7271.61	-0.188653	-0.195998	0
7271.61	-0.187621	-0.196001	0
7271.62	-0.186609	-0.195999	0
7271.62	-0.185539	-0.196005	0
7271.63	-0.184507	-0.196001	0
7271.63	-0.183361	-0.196003	0
7271.63	-0.182195	-0.196007	0
7271.64	-0.181164	-0.195999	0
7271.64	-0.179941	-0.196003	0
7271.65	-0.178909	-0.196001	0
7271.65	-0.177878	-0.196002	0
7271.66	-0.176789	-0.196005	0
7271.66	-0.175661	-0.195999	0
7271.67	-0.17463	-0.195999	0
7271.67	-0.173598	-0.196003	0
7271.67	-0.172585	-0.195996	0
7271.68	-0.171535	-0.196003	0
7271.68	-0.170503	-0.196001	0
7271.69	-0.169452	-0.196003	0
7271.69	-0.16844	-0.195999	0
7271.7	-0.16737	-0.196004	0
7271.7	-0.1663	-0.196	0
7271.7	-0.165192	-0.196003	0
7271.71	-0.164179	-0.196001	0
7271.71	-0.163167	-0.196002	0
7271.72	-0.162116	-0.195998	0
7271.72	-0.161046	-0.195997	0
7271.73	-0.160033	-0.196003	0
7271.73	-0.159002	-0.196003	0
7271.74	-0.15797	-0.196002	0
7271.74	-0.1569	-0.196	0
7271.75	-0.155849	-0.196002	0
7271.76	-0.154779	-0.196002	0
7271.76	-0.15371	-0.196001	0
7271.77	-0.152697	-0.196001	0
7271.77	-0.151684	-0.196003	0
7271.78	-0.150595	-0.196006	0
7271.79	-0.149545	-0.196004	0
7271.79	-0.148532	-0.196003	0
7271.8	-0.147481	-0.195998	0
7271.81	-0.14645	-0.196003	0
7271.81	-0.145399	-0.195999	0
7271.82	-0.144329	-0.195994	0
7271.83	-0.143278	-0.195997	0
7271.83	-0.142266	-0.196001	0
7271.84	-0.141253	-0.195999	0
7271.85	-0.140126	-0.195999	0
7271.86	-0.139094	-0.195999	0
7271.87	-0.138043	-0.196	0
7271.88	-0.137031	-0.195997	0
7271.89	-0.135961	-0.196003	0
7271.9	-0.13491	-0.196001	0
7271.91	-0.133898	-0.196006	0
7271.92	-0.132847	-0.195999	0
7271.93	-0.131796	-0.196001	0
7271.95	-0.130764	-0.196003	0
7271.96	-0.129694	-0.196005	0
7271.97	-0.128663	-0.196002	0
7271.99	-0.127612	-0.196	0
7272.01	-0.126599	-0.195999	0
7272.02	-0.125529	-0.195995	0
7272.04	-0.124498	-0.195994	0
7272.06	-0.123485	-0.195992	0
7272.09	-0.122454	-0.196003	0
7272.11	-0.121307	-0.196	0
7272.14	-0.120295	-0.19601	0
7272.17	-0.119244	-0.195999	0
7272.2	-0.118212	-0.196002	0
7272.24	-0.117142	-0.196005	0
7272.29	-0.116111	-0.196003	0
7272.34	-0.115079	-0.195999	0
7272.4	-0.114066	-0.195999	0
7272.46	-0.113016	-0.196003	0
7272.54	-0.112003	-0.195999	0
7272.64	-0.110933	-0.195999	0
7272.76	-0.109901	-0.196001	0
7272.91	-0.108889	-0.195998	0
7273.12	-0.107838	-0.195997	0
7273.39	-0.106826	-0.195999	0
7273.79	-0.105813	-0.195996	0
7274.29	-0.1048	-0.196003	0
7275.11	-0.103788	-0.196003	0
7276.12	-0.102775	-0.196004	0
7277.3	-0.101744	-0.195995	0
7278.52	-0.100731	-0.195995	0
7279.81	-0.0996993	-0.196002	0
7281.29	-0.0986868	-0.196005	0
7282.64	-0.097636	-0.196009	0
7284.19	-0.0966234	-0.195998	0
7285.7	-0.0956108	-0.196008	0
7287.17	-0.0945983	-0.196001	0
7288.9	-0.0935857	-0.196002	0
7290.63	-0.092554	-0.196002	0
7292.4	-0.0915415	-0.195998	0
7294.44	-0.0905289	-0.195999	0
7296.5	-0.0894972	-0.196	0
7298.81	-0.0884846	-0.196008	0
7301.01	-0.0874721	-0.195996	0
7303.92	-0.0864213	-0.196003	0
7306.71	-0.0854087	-0.196007	0
7309.77	-0.0843579	-0.196005	0
7313.11	-0.0833262	-0.196004	0
7317.19	-0.0823137	-0.196003	0
7321.22	-0.081282	-0.196003	0
7325.95	-0.0802503	-0.195999	0
7330.75	-0.0792377	-0.195995	0
7335.75	-0.0784735	-0.196004	0
7340.75	-0.0777858	-0.196003	0
7345.75	-0.0771744	-0.195999	0
7350.75	-0.0764293	-0.195998	0
7355.75	-0.0758752	-0.196004	0
7360.75	-0.0755504	-0.196001	0
7365.75	-0.0750346	-0.196008	0
7370.75	-0.0747671	-0.196004	0
7375.75	-0.0744232	-0.196004	0
7380.75	-0.0742131	-0.196001	0
7385.75	-0.0738883	-0.196001	0
7390.75	-0.0737928	-0.196004	0
7395.75	-0.0736399	-0.195996	0
7400.75	-0.0734489	-0.195998	0
7405.75	-0.0733725	-0.196004	0
7410.75	-0.0732196	-0.195994	0
7415.75	-0.0730095	-0.195997	0
7420.75	-0.0730286	-0.196002	0
7425.75	-0.0729713	-0.195998	0
7430.75	-0.0729139	-0.195998	0
7435.75	-0.0728375	-0.196006	0
7440.75	-0.0728375	-0.195996	0
7445.75	-0.0727038	-0.196003	0
7450.75	-0.072742	-0.196002	0
7455.75	-0.0726847	-0.196004	0
7460.75	-0.0726083	-0.195999	0
7465.75	-0.0726083	-0.196001	0
7470.75	-0.0726656	-0.195996	0
7475.75	-0.0726656	-0.196004	0
7480.75	-0.0726083	-0.195999	0
7485.75	-0.0725509	-0.196001	0
7490.75	-0.0725127	-0.195999	0
7495.75	-0.07257	-0.195997	0
7500.75	-0.07257	-0.196001	0
7505.75	-0.0726083	-0.195999	0
7510.75	-0.0726847	-0.195998	0
7515.75	-0.0724363	-0.196004	0
7520.75	-0.07257	-0.196006	0
7525.75	-0.0725892	-0.196001	0
7530.75	-0.07257	-0.196007	0
7535.75	-0.0726656	-0.196001	0
7540.75	-0.0725892	-0.196001	0
7545.75	-0.0726656	-0.196	0
7550.75	-0.0725509	-0.196	0
7555.75	-0.0727038	-0.196003	0
7560.75	-0.0726656	-0.196	0
7565.75	-0.0727229	-0.196003	0
7570.75	-0.0727038	-0.196003	0
7575.75	-0.0728184	-0.196003	0
7580.75	-0.0727993	-0.195996	0
7585.75	-0.0726847	-0.195997	0
7590.75	-0.0727229	-0.196	0
7595.75	-0.0728948	-0.195997	0
7600.75	-0.0729522	-0.196004	0
7605.75	-0.0727611	-0.196006	0
7610.75	-0.072742	-0.196005	0
7615.75	-0.0728566	-0.196001	0
7620.75	-0.0726656	-0.195998	0
7625.75	-0.0728184	-0.196006	0
7630.75	-0.072933	-0.196	0
7635.75	-0.0727611	-0.196005	0
7640.75	-0.072933	-0.196004	0
7645.75	-0.0728948	-0.196003	0
7650.75	-0.0729713	-0.196008	0
7655.75	-0.0728375	-0.196008	0
7660.75	-0.072933	-0.196	0
7665.75	-0.0729713	-0.196003	0
7670.75	-0.0730668	-0.196002	0
7675.75	-0.0730668	-0.196002	0
7680.75	-0.0729713	-0.196006	0
7685.75	-0.0729713	-0.196002	0
7690.75	-0.0729713	-0.195999	0
7695.75	-0.0729713	-0.195994	0
7700.75	-0.0729713	-0.196	0
7705.75	-0.0729713	-0.196005	0
7710.75	-0.073105	-0.196003	0
7715.75	-0.0730477	-0.196005	0
7720.75	-0.0730668	-0.196005	0
7725.75	-0.073105	-0.196003	0
7730.75	-0.0731623	-0.196001	0
7735.75	-0.0730668	-0.196001	0
7740.75	-0.0731241	-0.196003	0
7745.75	-0.0730668	-0.196009	0
7750.75	-0.0730668	-0.196003	0
7755.75	-0.072933	-0.196001	0
7760.75	-0.0730668	-0.196006	0
7765.75	-0.0732005	-0.195999	0
7770.75	-0.0731432	-0.196005	0
7775.75	-0.0730095	-0.196	0
7780.75	-0.0731623	-0.196005	0
7785.75	-0.0730477	-0.196	0
7790.75	-0.0730668	-0.196001	0
7795.75	-0.0731241	-0.196005	0
7800.75	-0.0731241	-0.19601	0
7805.75	-0.0731241	-0.196001	0
7810.75	-0.0730095	-0.196002	0
7815.75	-0.0730668	-0.196001	0
7820.75	-0.072933	-0.196	0
7825.75	-0.0730095	-0.196001	0
7830.75	-0.0730286	-0.196003	0
7835.75	-0.0730286	-0.196006	0
7840.75	-0.0730286	-0.196003	0
7845.75	-0.0729713	-0.196001	0
7850.75	-0.0730095	-0.196001	0
7855.75	-0.0729139	-0.196001	0
7860.75	-0.0730286	-0.196007	0
7865.75	-0.0728948	-0.19601	0
7870.75	-0.0728375	-0.196005	0
7875.75	-0.0729522	-0.196005	0
7880.75	-0.0728566	-0.196003	0
7885.75	-0.0729904	-0.196002	0
7890.75	-0.0729139	-0.196001	0
7895.75	-0.0727993	-0.195996	0
7900.75	-0.072742	-0.196003	0
7905.75	-0.0728184	-0.196001	0
7910.75	-0.0727611	-0.196008	0
7915.75	-0.0727993	-0.196	0
7920.75	-0.0728375	-0.196001	0
7925.75	-0.072742	-0.195998	0
7930.75	-0.0726847	-0.195999	0
7935.75	-0.0727229	-0.195999	0
7940.75	-0.0727611	-0.196001	0
7945.75	-0.07257	-0.196002	0
7950.75	-0.072742	-0.195998	0
7955.75	-0.0727611	-0.196008	0
7960.75	-0.0724172	-0.196006	0
7965.75	-0.0726465	-0.196001	0
7970.75	-0.0725892	-0.196	0
7975.75	-0.0726465	-0.196005	0
7980.75	-0.0725509	-0.195998	0
7985.75	-0.0726274	-0.196003	0
7990.75	-0.072379	-0.196001	0
7995.75	-0.0726274	-0.196004	0
8000.75	-0.0724554	-0.196004	0
8005.75	-0.072379	-0.196002	0
8010.75	-0.0726083	-0.196003	0
8015.75	-0.0724172	-0.196005	0
8020.75	-0.0723599	-0.196005	0
8025.75	-0.0723599	-0.196005	0
8030.75	-0.0724172	-0.196004	0
8035.75	-0.0723217	-0.196	0
8040.75	-0.0723599	-0.196006	0
8045.75	-0.0722644	-0.196005	0
8050.75	-0.0723026	-0.196005	0
8055.75	-0.0722644	-0.196	0
8060.75	-0.0721306	-0.195998	0
8065.75	-0.0721306	-0.196003	0
8070.75	-0.0721688	-0.195999	0
8075.75	-0.0721115	-0.196003	0
8080.75	-0.0722835	-0.196001	0
8085.75	-0.0719778	-0.196006	0
8090.75	-0.0720351	-0.195996	0
8095.75	-0.072016	-0.196003	0
8100.75	-0.0720733	-0.195997	0
8105.75	-0.0719969	-0.196005	0
8110.75	-0.0720924	-0.196004	0
8115.75	-0.0718632	-0.196002	0
8120.75	-0.0719778	-0.196002	0
8125.75	-0.0718823	-0.196004	0
8130.75	-0.0717485	-0.196004	0
8135.75	-0.0719396	-0.195998	0
8140.75	-0.0718249	-0.196003	0
8145.75	-0.0717867	-0.196002	0
8150.75	-0.0716721	-0.196006	0
8155.75	-0.0717676	-0.196005	0
8160.75	-0.0717485	-0.195998	0
8165.75	-0.0716912	-0.196008	0
8170.75	-0.0717676	-0.196004	0
8175.75	-0.0715957	-0.196	0
8180.75	-0.0717294	-0.196006	0
8185.75	-0.071481	-0.196	0
8190.75	-0.0715766	-0.195998	0
8195.75	-0.0715766	-0.195998	0
8200.75	-0.071653	-0.196004	0
8205.75	-0.0716721	-0.195996	0
8210.75	-0.0714619	-0.196005	0
8215.75	-0.0715766	-0.196	0
8220.75	-0.0714428	-0.196001	0
8225.75	-0.0713855	-0.196	0
8230.75	-0.0714237	-0.195999	0
8235.75	-0.0715193	-0.196001	0
8240.75	-0.0713282	-0.196001	0
8245.75	-0.0715193	-0.195998	0
8250.75	-0.0713091	-0.196002	0
8255.75	-0.0713855	-0.196003	0
8260.75	-0.0714046	-0.196005	0
8265.75	-0.07129	-0.196002	0
8270.75	-0.0711945	-0.196002	0
8275.75	-0.0714046	-0.195999	0
8280.75	-0.0711372	-0.196002	0
8285.75	-0.0712327	-0.196006	0
8290.75	-0.0711945	-0.195999	0
8295.75	-0.07129	-0.195998	0
8300.75	-0.0712518	-0.196001	0
8305.75	-0.0711181	-0.196003	0
8310.75	-0.0711181	-0.195998	0
8315.75	-0.0711754	-0.195997	0
8320.75	-0.0711945	-0.196	0
8325.75	-0.0710034	-0.196005	0
8330.75	-0.0711372	-0.196008	0
8335.75	-0.0710798	-0.196003	0
8340.75	-0.0710416	-0.196005	0
8345.75	-0.0710798	-0.196005	0
8350.75	-0.0711372	-0.196003	0
8355.75	-0.0707742	-0.196006	0
8360.75	-0.0709079	-0.196005	0
8365.75	-0.0709079	-0.196003	0
8370.75	-0.0710034	-0.196001	0
8375.75	-0.0708888	-0.195998	0
8380.75	-0.0708697	-0.195998	0
8385.75	-0.0710034	-0.196002	0
8390.75	-0.070736	-0.195998	0
8395.75	-0.0709079	-0.196003	0
8400.75	-0.0707168	-0.196008	0
8405.75	-0.0708888	-0.196004	0
8410.75	-0.0707933	-0.196004	0
8415.75	-0.0706977	-0.196004	0
8420.75	-0.0708315	-0.196002	0
8425.75	-0.0707168	-0.195998	0
8430.75	-0.0707551	-0.196005	0
8435.75	-0.0708315	-0.196	0
8440.75	-0.070736	-0.195999	0
8445.75	-0.0706595	-0.196	0
8450.75	-0.0706022	-0.195999	0
8455.75	-0.0706977	-0.196	0
8460.75	-0.0706022	-0.196002	0
8465.75	-0.0706213	-0.196005	0
8470.75	-0.0706022	-0.196002	0
8475.75	-0.0706786	-0.196007	0
8480.75	-0.0706022	-0.196002	0
8485.75	-0.0704876	-0.196004	0
8490.75	-0.0706404	-0.196003	0
8495.75	-0.0706404	-0.196003	0
8500.75	-0.0704685	-0.195998	0
8505.75	-0.0704303	-0.195997	0
8510.75	-0.0704876	-0.195996	0
8515.75	-0.0704876	-0.196002	0
8520.75	-0.0705449	-0.19601	0
8525.75	-0.0704685	-0.196004	0
8530.75	-0.0704876	-0.196007	0
8535.75	-0.070373	-0.195999	0
8540.75	-0.0703921	-0.196004	0
8545.75	-0.0704494	-0.196004	0
8550.75	-0.0703347	-0.195998	0
8555.75	-0.0703539	-0.195998	0
8560.75	-0.0703347	-0.196003	0
8565.75	-0.070201	-0.195996	0
8570.75	-0.0703347	-0.196006	0
8575.75	-0.0703921	-0.196005	0
8580.75	-0.0703921	-0.196006	0
8585.75	-0.070373	-0.195996	0
8590.75	-0.0703156	-0.196001	0
8595.75	-0.0701628	-0.196003	0
8600.75	-0.0702201	-0.196001	0
8605.75	-0.0703347	-0.195998	0
8610.75	-0.0703347	-0.196002	0
8615.75	-0.0702201	-0.196003	0
8620.75	-0.0703539	-0.196	0
8625.75	-0.0701628	-0.195996	0
8630.75	-0.0701819	-0.196001	0
8635.75	-0.0701246	-0.195996	0
8640.75	-0.0702392	-0.196002	0
8645.75	-0.070201	-0.196001	0
8650.75	-0.0701246	-0.195999	0
8655.75	-0.0701055	-0.196003	0
8660.75	-0.0701819	-0.196002	0
8665.75	-0.070201	-0.196007	0
8670.75	-0.0701819	-0.196	0
8675.75	-0.07001	-0.196006	0
8680.75	-0.0700673	-0.196003	0
8685.75	-0.0701055	-0.196006	0
8690.75	-0.0700864	-0.195998	0
8695.75	-0.0701055	-0.196004	0
8700.75	-0.0700291	-0.196003	0
8705.75	-0.0701819	-0.196006	0
8710.75	-0.0701437	-0.196008	0
8715.75	-0.07001	-0.195999	0
8720.75	-0.0700673	-0.196005	0
8725.75	-0.0698571	-0.195995	0
8730.75	-0.0700482	-0.195998	0
8735.75	-0.0699335	-0.196001	0
8740.75	-0.07001	-0.195999	0
8745.75	-0.0699717	-0.195999	0
8750.75	-0.0700482	-0.196005	0
8755.75	-0.0698571	-0.196005	0
8760.75	-0.0700482	-0.195998	0
8765.75	-0.0698953	-0.196004	0
8770.75	-0.0700291	-0.196004	0
8775.75	-0.0699717	-0.195999	0
8780.75	-0.0699335	-0.196008	0
8785.75	-0.0698762	-0.196001	0
8790.75	-0.0698762	-0.195995	0
8795.75	-0.0699717	-0.196006	0
8800.75	-0.0697807	-0.196006	0
8805.75	-0.0699526	-0.196001	0
8810.75	-0.0697807	-0.196006	0
8815.75	-0.0698953	-0.195998	0
8820.75	-0.0699144	-0.195999	0
8825.75	-0.0698189	-0.196001	0
8830.75	-0.0698762	-0.196004	0
8835.75	-0.0697425	-0.196006	0
8840.75	-0.0697998	-0.195998	0
8845.75	-0.0697234	-0.196002	0
8850.75	-0.0697234	-0.196004	0
8855.75	-0.0697807	-0.195999	0
8860.75	-0.0697234	-0.196002	0
8865.75	-0.0697043	-0.196001	0
8870.75	-0.069838	-0.196001	0
8875.75	-0.0697998	-0.196007	0
8880.75	-0.0696852	-0.195996	0
8885.75	-0.0696852	-0.196001	0
8890.75	-0.0696279	-0.196004	0
8895.75	-0.0697043	-0.195999	0
8900.75	-0.0697616	-0.196001	0
8905.75	-0.0695514	-0.196006	0
8910.75	-0.0697616	-0.196001	0
8915.75	-0.069647	-0.196001	0
8920.75	-0.0696279	-0.195997	0
8925.75	-0.0695705	-0.195999	0
8930.75	-0.0696852	-0.195999	0
8935.75	-0.0696087	-0.195999	0
8940.75	-0.0695514	-0.195999	0
8945.75	-0.0695705	-0.195999	0
8950.75	-0.0696279	-0.196005	0
8955.75	-0.0696279	-0.195997	0
8960.75	-0.0695514	-0.196	0
8965.75	-0.069647	-0.196006	0
8970.75	-0.0696087	-0.196001	0
8975.75	-0.0695896	-0.196004	0
8980.75	-0.0695323	-0.195997	0
8985.75	-0.0694941	-0.196001	0
8990.75	-0.0695705	-0.196002	0
8995.75	-0.0694941	-0.196005	0
9000.75	-0.0694941	-0.196002	0
9005.75	-0.0696279	-0.196002	0
9010.75	-0.0694941	-0.196004	0
9015.75	-0.069475	-0.195999	0
9020.75	-0.069475	-0.195997	0
9025.75	-0.0693604	-0.196004	0
9030.75	-0.0694177	-0.196003	0
9035.75	-0.069475	-0.196001	0
9040.75	-0.0694559	-0.196006	0
9045.75	-0.0694559	-0.196003	0
9050.75	-0.0694941	-0.196005	0
9055.75	-0.0693986	-0.196003	0
9060.75	-0.0693795	-0.195998	0
9065.75	-0.0693222	-0.196003	0
9070.75	-0.0693413	-0.196	0
9071.05	-0.069475	-0.195994	0