File: EXPERIMENTAL/Data/Battery-cycling/SEIDEP/2024-04-22_SEIDEP-5_T-cell_Li-Cu_1-mm-PP-spacer_75muL-4MLiFSI-DME_inside-glovebox_02_MB_C05.txt
time/s	Ewe/V	I/mA	error
60.053	2.78922	-0.0250364	0
60.1732	0.00856518	-9.93961	0
60.1742	0.00854607	-9.88612	0
60.1752	0.00854607	-9.82945	0
60.1762	0.00858428	-9.77915	0
60.1772	0.00860339	-9.72884	0
60.178	0.00862249	-9.67472	0
60.1792	0.00845055	-9.61168	0
60.1802	0.00867981	-9.55755	0
60.1812	0.00848876	-9.50342	0
60.1824	0.00846965	-9.44102	0
60.1836	0.00854607	-9.37607	0
60.1848	0.00854607	-9.32067	0
60.1858	0.00858428	-9.26846	0
60.187	0.00854607	-9.20605	0
60.1882	0.00856518	-9.14301	0
60.1894	0.00860339	-9.09271	0
60.1904	0.00856518	-9.04177	0
60.1914	0.00854607	-8.98891	0
60.1924	0.00854607	-8.93797	0
60.1936	0.00867981	-8.88003	0
60.1948	0.00856518	-8.82526	0
60.196	0.00869891	-8.76987	0
60.1972	0.00852697	-8.71128	0
60.1984	0.00846965	-8.65397	0
60.1996	0.00860339	-8.59794	0
60.2008	0.00867981	-8.5419	0
60.2022	0.00850786	-8.47886	0
60.2034	0.00860339	-8.42155	0
60.2048	0.00856518	-8.36424	0
60.206	0.00858428	-8.31203	0
60.2074	0.0086607	-8.25472	0
60.2084	0.00852697	-8.20314	0
60.2098	0.00860339	-8.14328	0
60.2112	0.00860339	-8.0898	0
60.2126	0.00856518	-8.0293	0
60.2138	0.00858428	-7.97518	0
60.2152	0.00858428	-7.92169	0
60.2166	0.00846965	-7.86311	0
60.218	0.00858428	-7.80771	0
60.2192	0.00862249	-7.75422	0
60.2206	0.00860339	-7.70073	0
60.222	0.00856518	-7.64915	0
60.2234	0.00860339	-7.59184	0
60.2248	0.00856518	-7.53772	0
60.2262	0.00856518	-7.48041	0
60.2278	0.0086607	-7.42182	0
60.2292	0.00850786	-7.36388	0
60.2308	0.00856518	-7.31103	0
60.2324	0.00862249	-7.25244	0
60.234	0.00860339	-7.18877	0
60.2354	0.00856518	-7.13655	0
60.237	0.0086416	-7.08306	0
60.2384	0.00860339	-7.03276	0
60.2398	0.00856518	-6.97609	0
60.2416	0.00850786	-6.92451	0
60.2428	0.00850786	-6.87038	0
60.2444	0.00858428	-6.81944	0
60.246	0.00852697	-6.76786	0
60.2476	0.00869891	-6.70228	0
60.2494	0.0086607	-6.65197	0
60.2508	0.00852697	-6.60039	0
60.2524	0.00852697	-6.54818	0
60.2542	0.00854607	-6.48768	0
60.2562	0.0086607	-6.43228	0
60.258	0.00850786	-6.36861	0
60.2598	0.00862249	-6.31576	0
60.2616	0.00850786	-6.26354	0
60.2636	0.00850786	-6.20687	0
60.2654	0.00860339	-6.15274	0
60.2672	0.00858428	-6.09925	0
60.2688	0.00854607	-6.04704	0
60.2706	0.00852697	-5.99673	0
60.2726	0.0086607	-5.94579	0
60.2742	0.00850786	-5.89294	0
60.2764	0.00856518	-5.84009	0
60.2786	0.00846965	-5.78278	0
60.2806	0.00862249	-5.72738	0
60.2828	0.00856518	-5.67135	0
60.2848	0.00852697	-5.6204	0
60.287	0.00854607	-5.56883	0
60.289	0.00858428	-5.51597	0
60.2916	0.00856518	-5.45548	0
60.2942	0.00862249	-5.40008	0
60.2966	0.00860339	-5.33895	0
60.2992	0.00854607	-5.28674	0
60.3014	0.00858428	-5.23516	0
60.3038	0.00854607	-5.18485	0
60.3064	0.00854607	-5.13328	0
60.309	0.0086607	-5.0766	0
60.3116	0.00867981	-5.02375	0
60.3144	0.00843144	-4.97154	0
60.3176	0.00854607	-4.91996	0
60.3204	0.00846965	-4.86583	0
60.3234	0.00854607	-4.80598	0
60.3266	0.00862249	-4.75567	0
60.33	0.00848876	-4.699	0
60.3328	0.0086416	-4.64869	0
60.3362	0.0086416	-4.59648	0
60.3398	0.00854607	-4.54235	0
60.3432	0.00854607	-4.49205	0
60.3468	0.00869891	-4.4392	0
60.3504	0.00856518	-4.38889	0
60.3542	0.00869891	-4.3354	0
60.3578	0.00856518	-4.2851	0
60.3622	0.0086416	-4.23161	0
60.3664	0.00852697	-4.17494	0
60.371	0.00862249	-4.124	0
60.4034	0.00858428	-3.82238	0
60.4088	0.00852697	-3.77206	0
60.4144	0.00856518	-3.72135	0
60.4202	0.00854607	-3.67103	0
60.4262	0.00867981	-3.62007	0
60.4324	0.00862249	-3.56962	0
60.439	0.00858428	-3.51873	0
60.4458	0.00848876	-3.46764	0
60.4528	0.00852697	-3.41732	0
60.46	0.00858428	-3.36725	0
60.4674	0.00856518	-3.31636	0
60.4754	0.00845055	-3.26559	0
60.4834	0.00856518	-3.21533	0
60.4918	0.0086607	-3.16527	0
60.5006	0.00850786	-3.11437	0
60.5098	0.00860339	-3.06373	0
60.5194	0.00856518	-3.01315	0
60.5294	0.00856518	-2.96277	0
60.5398	0.00848876	-2.9113	0
60.5508	0.00860339	-2.86028	0
60.5622	0.00858428	-2.81002	0
60.5738	0.00856518	-2.75938	0
60.5864	0.00860339	-2.70912	0
60.5992	0.00850786	-2.65867	0
60.6128	0.00860339	-2.60797	0
60.6266	0.00843144	-2.55771	0
60.6416	0.00856518	-2.50739	0
60.6572	0.00850786	-2.45694	0
60.6734	0.00856518	-2.40662	0
60.6908	0.00845055	-2.35636	0
60.7086	0.0086416	-2.30508	0
60.728	0.00852697	-2.25463	0
60.7478	0.00848876	-2.20463	0
60.7684	0.00854607	-2.15463	0
60.7912	0.00867981	-2.10392	0
60.8142	0.00860339	-2.05386	0
60.8394	0.00854607	-2.00385	0
60.8654	0.00867981	-1.95328	0
60.8938	0.00854607	-1.90251	0
60.9236	0.00843144	-1.85225	0
60.9552	0.00862249	-1.8018	0
60.9888	0.00862249	-1.75154	0
61.0252	0.00862249	-1.70148	0
61.0638	0.00846965	-1.65109	0
61.1058	0.00860339	-1.6009	0
61.1504	0.00858428	-1.5507	0
61.1986	0.00862249	-1.50051	0
61.2504	0.00858428	-1.45044	0
61.3078	0.00867981	-1.3998	0
61.3682	0.00860339	-1.34967	0
61.4352	0.00862249	-1.2996	0
61.5088	0.00856518	-1.24941	0
61.59	0.0086416	-1.19921	0
61.6796	0.00860339	-1.14889	0
61.7782	0.0086607	-1.09889	0
61.8876	0.00848876	-1.04882	0
62.0106	0.00850786	-0.998691	0
62.1496	0.00858428	-0.948624	0
62.3072	0.00854607	-0.898557	0
62.4862	0.00856518	-0.848363	0
62.6976	0.00856518	-0.798232	0
62.942	0.00854607	-0.748229	0
63.2302	0.00862249	-0.698035	0
63.5758	0.00850786	-0.647904	0
63.994	0.0086416	-0.597901	0
64.5172	0.00858428	-0.547324	0
65.0528	0.00856518	-0.507131	0
65.0534	0.0086416	-0.507831	0
65.8552	0.00858428	-0.457382	0
67.1058	0.0086607	-0.407382	0
68.74	0.00867981	-0.357308	0
71.217	0.00850786	-0.307272	0
75.2442	0.00858428	-0.257218	0
82.5608	0.0086607	-0.207175	0
98.0922	0.0086416	-0.157165	0
128.092	0.00856518	-0.11805	0
158.092	0.00858428	-0.0991828	0
188.092	0.00854607	-0.0875112	0
218.092	0.0086607	-0.079157	0
248.092	0.00854607	-0.0728851	0
278.092	0.00856518	-0.0677147	0
308.092	0.00858428	-0.0635567	0
338.092	0.0086416	-0.0599527	0
368.092	0.00860339	-0.0568262	0
398.092	0.00856518	-0.0543047	0
428.092	0.00848876	-0.051987	0
458.092	0.00854607	-0.049752	0
488.092	0.00856518	-0.0476634	0
518.092	0.0086416	-0.0458232	0
548.092	0.00858428	-0.0447149	0
578.092	0.00860339	-0.0432735	0
608.092	0.0086607	-0.0420129	0
638.092	0.00852697	-0.0407657	0
668.092	0.00852697	-0.039649	0
698.092	0.0086416	-0.0385679	0
728.092	0.00858428	-0.0374913	0
758.092	0.00854607	-0.0367248	0
788.092	0.00862249	-0.0358583	0
818.092	0.00860339	-0.0349905	0
848.092	0.00854607	-0.0342081	0
878.092	0.00867981	-0.0335147	0
908.092	0.0086607	-0.0328628	0
938.092	0.00860339	-0.0321981	0
968.092	0.00858428	-0.0316086	0
998.092	0.00867981	-0.0309566	0
1028.09	0.00871802	-0.0304893	0
1058.09	0.0086416	-0.0299513	0
1088.09	0.00852697	-0.0294051	0
1118.09	0.00860339	-0.0289537	0
1148.09	0.0086416	-0.0284418	0
1178.09	0.00867981	-0.0279561	0
1208.09	0.00860339	-0.0275779	0
1238.09	0.0086607	-0.0272303	0
1268.09	0.00845055	-0.0268011	0
1298.09	0.00860339	-0.0263459	0
1328.09	0.00873712	-0.0260009	0
1358.09	0.0086607	-0.0256571	0
1388.09	0.00867981	-0.0253356	0
1418.09	0.00860339	-0.0249695	0
1448.09	0.00856518	-0.0247409	0
1478.09	0.00854607	-0.0243443	0
1508.09	0.00860339	-0.0240667	0
1538.09	0.00848876	-0.0238254	0
1568.09	0.00858428	-0.0235249	0
1598.09	0.0086607	-0.0232117	0
1628.09	0.00873712	-0.0230098	0
1658.09	0.00858428	-0.0227373	0
1688.09	0.00869891	-0.022484	0
1718.09	0.00858428	-0.0222611	0
1748.09	0.00854607	-0.0220179	0
1778.09	0.00854607	-0.0218397	0
1808.09	0.0086416	-0.0215964	0
1838.09	0.0086607	-0.0213895	0
1868.09	0.00862249	-0.0211501	0
1898.09	0.0086416	-0.0209515	0
1928.09	0.00869891	-0.0208337	0
1958.09	0.00869891	-0.0205765	0
1988.09	0.00862249	-0.0204244	0
2018.09	0.00850786	-0.0202174	0
2048.09	0.0086416	-0.0200589	0
2078.09	0.00862249	-0.0199214	0
2108.09	0.00860339	-0.0197298	0
2138.09	0.00860339	-0.0195814	0
2168.09	0.00869891	-0.0194159	0
2198.09	0.00867981	-0.0190161	0
2228.09	0.00858428	-0.0188773	0
2258.09	0.00858428	-0.0187289	0
2288.09	0.00850786	-0.018587	0
2318.09	0.00858428	-0.0184717	0
2348.09	0.00858428	-0.018359	0
2378.09	0.00856518	-0.0182024	0
2408.09	0.0086416	-0.0181005	0
2438.09	0.00867981	-0.0179433	0
2468.09	0.00871802	-0.0177969	0
2498.09	0.00856518	-0.017793	0
2528.09	0.00862249	-0.0176154	0
2558.09	0.00854607	-0.0175371	0
2588.09	0.00871802	-0.0174098	0
2618.09	0.00862249	-0.0173206	0
2648.09	0.0086416	-0.0172538	0
2678.09	0.00860339	-0.0171405	0
2708.09	0.00860339	-0.0170405	0
2738.09	0.00871802	-0.0169565	0
2768.09	0.0086607	-0.0167527	0
2798.09	0.00854607	-0.0165936	0
2828.09	0.00862249	-0.0164993	0
2858.09	0.0086607	-0.0163803	0
2888.09	0.00856518	-0.0163096	0
2918.09	0.0086416	-0.0161912	0
2948.09	0.00867981	-0.0161377	0
2978.09	0.00858428	-0.0159595	0
3008.09	0.00856518	-0.0159454	0
3038.09	0.00860339	-0.0158964	0
3068.09	0.0086416	-0.0158461	0
3098.09	0.00871802	-0.0157194	0
3128.09	0.0086607	-0.0156004	0
3158.09	0.00860339	-0.0155711	0
3188.09	0.00862249	-0.0154775	0
3218.09	0.00856518	-0.0154094	0
3248.09	0.00860339	-0.0153667	0
3278.09	0.00867981	-0.0152483	0
3308.09	0.0086607	-0.0151477	0
3338.09	0.00858428	-0.0151025	0
3368.09	0.00860339	-0.0150204	0
3398.09	0.00871802	-0.0149446	0
3428.09	0.0086607	-0.0147721	0
3458.09	0.00854607	-0.014781	0
3488.09	0.00862249	-0.0146237	0
3518.09	0.00848876	-0.0146237	0
3548.09	0.00860339	-0.0145677	0
3578.09	0.00858428	-0.0144951	0
3608.09	0.00871802	-0.0144518	0
3638.09	0.00867981	-0.0143576	0
3668.09	0.00862249	-0.0143245	0
3698.09	0.0086607	-0.0142284	0
3728.09	0.00854607	-0.0141628	0
3758.09	0.0086416	-0.0138935	0
3788.09	0.00862249	-0.013833	0
3818.09	0.00856518	-0.0137891	0
3848.09	0.00856518	-0.0136923	0
3878.09	0.00871802	-0.0136713	0
3908.09	0.00856518	-0.0136267	0
3938.09	0.0086607	-0.0135758	0
3968.09	0.0086416	-0.0135236	0
3998.09	0.00867981	-0.0134606	0
4028.09	0.00862249	-0.0134141	0
4058.09	0.00856518	-0.013332	0
4088.09	0.00860339	-0.0133453	0
4118.09	0.00862249	-0.0132371	0
4148.09	0.0086416	-0.0132345	0
4178.09	0.0086607	-0.0131085	0
4208.09	0.00852697	-0.0131091	0
4238.09	0.00856518	-0.0130792	0
4268.09	0.00858428	-0.0129882	0
4298.09	0.0086416	-0.0129404	0
4328.09	0.00852697	-0.0129824	0
4358.09	0.00862249	-0.0129449	0
4388.09	0.0086607	-0.0127927	0
4418.09	0.00869891	-0.0127876	0
4448.09	0.00854607	-0.0126819	0
4478.09	0.00869891	-0.0126787	0
4508.09	0.0086416	-0.0126412	0
4538.09	0.00852697	-0.0125985	0
4568.09	0.00862249	-0.0125438	0
4598.09	0.00852697	-0.0124884	0
4628.09	0.0086607	-0.0124807	0
4658.09	0.00860339	-0.0124247	0
4688.09	0.00856518	-0.012391	0
4718.09	0.00862249	-0.0123579	0
4748.09	0.00854607	-0.0122916	0
4778.09	0.00860339	-0.0123069	0
4808.09	0.0086607	-0.0122522	0
4838.09	0.00852697	-0.0122477	0
4868.09	0.00858428	-0.0122063	0
4898.09	0.00848876	-0.012121	0
4928.09	0.00854607	-0.0121089	0
4958.09	0.00854607	-0.0120593	0
4988.09	0.0086416	-0.0120147	0
5018.09	0.00867981	-0.0119905	0
5048.09	0.00860339	-0.0119479	0
5078.09	0.00854607	-0.0119218	0
5108.09	0.00867981	-0.0119249	0
5138.09	0.00848876	-0.0118816	0
5168.09	0.00858428	-0.0118466	0
5198.09	0.00858428	-0.0118014	0
5228.09	0.00862249	-0.0117148	0
5258.09	0.0086607	-0.0117365	0
5288.09	0.00869891	-0.0116614	0
5318.09	0.0086607	-0.0115945	0
5348.09	0.0086416	-0.0116263	0
5378.09	0.00867981	-0.01159	0
5408.09	0.0086607	-0.0115372	0
5438.09	0.0086416	-0.0115493	0
5468.09	0.00862249	-0.0114061	0
5498.09	0.0086416	-0.0113481	0
5528.09	0.00850786	-0.0113978	0
5558.09	0.0086416	-0.0113742	0
5588.09	0.00860339	-0.0113303	0
5618.09	0.00858428	-0.0112972	0
5648.09	0.00871802	-0.0112233	0
5678.09	0.0086416	-0.0112335	0
5708.09	0.00858428	-0.0112004	0
5738.09	0.00862249	-0.0111508	0
5768.09	0.0086416	-0.0111387	0
5798.09	0.00862249	-0.0110705	0
5828.09	0.00862249	-0.011082	0
5858.09	0.00867981	-0.0110521	0
5888.09	0.00867981	-0.0109935	0
5918.09	0.00860339	-0.0110005	0
5948.09	0.00860339	-0.0109496	0
5978.09	0.00852697	-0.0108757	0
6008.09	0.00867981	-0.010947	0
6038.09	0.00858428	-0.0108515	0
6068.09	0.00862249	-0.0108528	0
6098.09	0.00858428	-0.0108343	0
6128.09	0.0086607	-0.0107993	0
6158.09	0.00858428	-0.0107675	0
6188.09	0.00862249	-0.0107522	0
6218.09	0.00860339	-0.0107471	0
6248.09	0.0086607	-0.0106943	0
6278.09	0.00867981	-0.0106892	0
6308.09	0.00854607	-0.0106452	0
6338.09	0.00871802	-0.0106325	0
6368.09	0.00854607	-0.0105739	0
6398.09	0.00860339	-0.0105835	0
6428.09	0.00867981	-0.0105065	0
6458.09	0.00858428	-0.0105071	0
6488.09	0.00858428	-0.0105377	0
6518.09	0.00856518	-0.0104154	0
6548.09	0.00871802	-0.0103785	0
6578.09	0.00869891	-0.0104288	0
6608.09	0.00854607	-0.0103976	0
6638.09	0.00846965	-0.010374	0
6668.09	0.00856518	-0.0103435	0
6698.09	0.00858428	-0.0103167	0
6728.09	0.00856518	-0.0103065	0
6758.09	0.00860339	-0.0102518	0
6788.09	0.00862249	-0.0102352	0
6818.09	0.00858428	-0.0101913	0
6848.09	0.0086607	-0.0101735	0
6878.09	0.00860339	-0.0101677	0
6908.09	0.00854607	-0.0101219	0
6938.09	0.00871802	-0.0101327	0
6968.09	0.00869891	-0.0101104	0
6998.09	0.00860339	-0.0101187	0
7028.09	0.00862249	-0.0100964	0
7058.09	0.00858428	-0.0100646	0
7088.09	0.00867981	-0.0100481	0
7118.09	0.00856518	-0.010036	0
7148.09	0.00869891	-0.0099411	0
7178.09	0.00860339	-0.0099933	0
7208.09	0.00850786	-0.00994046	0
7238.09	0.00871802	-0.00992582	0
7268.09	0.00856518	-0.00987298	0
7271.05	0.00860339	-0.00978193	0
7271.05	0.00860339	-0.00980804	0