File: EXPERIMENTAL/Data/Battery-cycling/JP-measurements/T-cell/2024-04-23_JP-A2-02_T-cell_Li-Cu_1-mm-PP-spacer_75muL-4MLiFSI-DME_inside-glovebox_added-OCV-0.1s_02_MB_C10.txt
time/s	Ewe/V	I/mA	error
60.053	3.08908	-0.0250155	0
60.1448	0.00863157	-9.24205	0
60.1472	0.00866975	-9.0721	0
60.1496	0.00859339	-8.90559	0
60.152	0.00855521	-8.74303	0
60.1544	0.00866975	-8.58365	0
60.1568	0.0085743	-8.42835	0
60.1598	0.0085743	-8.24113	0
60.1628	0.00859339	-8.05888	0
60.1658	0.00855521	-7.88363	0
60.1688	0.00870793	-7.71279	0
60.1718	0.00851702	-7.54742	0
60.1748	0.00861248	-7.38715	0
60.1778	0.00849793	-7.23243	0
60.181	0.00863157	-7.07076	0
60.1846	0.00859339	-6.89475	0
60.1882	0.0085743	-6.72448	0
60.1918	0.00866975	-6.56026	0
60.1954	0.00863157	-6.40159	0
60.199	0.00859339	-6.24826	0
60.203	0.0085743	-6.08481	0
60.2072	0.00851702	-5.91983	0
60.2114	0.00859339	-5.76274	0
60.216	0.00849793	-5.59974	0
60.2208	0.00865066	-5.438	0
60.2258	0.00851702	-5.27933	0
60.2312	0.00863157	-5.11995	0
60.2368	0.00861248	-4.96491	0
60.243	0.00861248	-4.80611	0
60.2494	0.00859339	-4.65291	0
60.2566	0.00859339	-4.495	0
60.2644	0.00861248	-4.33875	0
60.273	0.00866975	-4.18097	0
60.2822	0.00861248	-4.02688	0
60.2924	0.00863157	-3.87299	0
60.3036	0.00855521	-3.71966	0
60.3164	0.00874612	-3.56226	0
60.3304	0.00863157	-3.40964	0
60.346	0.00866975	-3.25715	0
60.3636	0.00861248	-3.10536	0
60.3836	0.00855521	-2.95356	0
60.4066	0.0085743	-2.80165	0
60.433	0.00861248	-2.65023	0
60.464	0.00861248	-2.49908	0
60.5008	0.00863157	-2.3471	0
60.5448	0.0085743	-2.196	0
60.5984	0.00868884	-2.04498	0
60.664	0.00865066	-1.89433	0
60.747	0.00861248	-1.74254	0
60.8524	0.00870793	-1.5917	0
60.9892	0.0085743	-1.44074	0
61.1726	0.00870793	-1.28965	0
61.4252	0.00859339	-1.13894	0
61.7906	0.00851702	-0.987974	0
62.356	0.00861248	-0.837774	0
63.3026	0.00853611	-0.687702	0
65.0528	0.00859339	-0.543047	0
67.6042	0.00870793	-0.443278	0
78.962	0.00865066	-0.293104	0
108.962	0.00859339	-0.200951	0
138.962	0.00870793	-0.16811	0
168.962	0.00865066	-0.147646	0
198.962	0.00863157	-0.132177	0
228.962	0.00861248	-0.120258	0
258.962	0.00851702	-0.111375	0
288.962	0.00870793	-0.103911	0
318.962	0.00868884	-0.0976494	0
348.962	0.0085743	-0.092527	0
378.962	0.00868884	-0.0876591	0
408.962	0.00865066	-0.0836247	0
438.962	0.00876521	-0.0800295	0
468.962	0.00859339	-0.0767524	0
498.962	0.00868884	-0.0738508	0
528.962	0.00861248	-0.0712927	0
558.962	0.00859339	-0.068951	0
588.962	0.0085743	-0.0667557	0
618.962	0.00865066	-0.0648085	0
648.962	0.00865066	-0.0630777	0
678.962	0.00861248	-0.0614169	0
708.962	0.00868884	-0.0597815	0
738.962	0.00861248	-0.0583752	0
768.962	0.00861248	-0.0570899	0
798.962	0.00872702	-0.0558172	0
828.962	0.00866975	-0.0545827	0
858.962	0.0085743	-0.0534628	0
888.962	0.00866975	-0.052521	0
918.962	0.00861248	-0.0514138	0
948.962	0.0085743	-0.0506311	0
978.962	0.00851702	-0.0496257	0
1008.96	0.00868884	-0.048703	0
1038.96	0.00855521	-0.0480158	0
1068.96	0.00865066	-0.0471695	0
1098.96	0.00861248	-0.0466413	0
1128.96	0.00865066	-0.0458905	0
1158.96	0.00863157	-0.045216	0
1188.96	0.00849793	-0.0448875	0
1218.96	0.00870793	-0.044306	0
1248.96	0.00861248	-0.043699	0
1278.96	0.00866975	-0.0431423	0
1308.96	0.00866975	-0.0426549	0
1338.96	0.00866975	-0.0420645	0
1368.96	0.00865066	-0.0416064	0
1398.96	0.0087843	-0.0411203	0
1428.96	0.00861248	-0.0406628	0
1458.96	0.00866975	-0.040143	0
1488.96	0.00866975	-0.0397803	0
1518.96	0.00866975	-0.0393852	0
1548.96	0.00855521	-0.0389634	0
1578.96	0.00866975	-0.0384722	0
1608.96	0.0085743	-0.0381044	0
1638.96	0.00870793	-0.0377609	0
1668.96	0.00866975	-0.0373047	0
1698.96	0.00861248	-0.0370012	0
1728.96	0.00868884	-0.0365933	0
1758.96	0.00872702	-0.0362523	0
1788.96	0.00863157	-0.0359864	0
1818.96	0.00861248	-0.0356542	0
1848.96	0.00870793	-0.0353297	0
1878.96	0.00865066	-0.0350237	0
1908.96	0.00866975	-0.034703	0
1938.96	0.00872702	-0.0344753	0
1968.96	0.00868884	-0.0341889	0
1998.96	0.00865066	-0.0338912	0
2028.96	0.00866975	-0.0335934	0
2058.96	0.00865066	-0.0333675	0
2088.96	0.00876521	-0.0330825	0
2118.96	0.00863157	-0.0328719	0
2148.96	0.00870793	-0.0326511	0
2178.96	0.00870793	-0.0323979	0
2208.96	0.00868884	-0.0321472	0
2238.96	0.00865066	-0.0318634	0
2268.96	0.0085743	-0.0316993	0
2298.96	0.00866975	-0.031455	0
2328.96	0.00861248	-0.0312558	0
2358.96	0.00866975	-0.0310719	0
2388.96	0.00870793	-0.0308168	0
2418.96	0.00861248	-0.0306094	0
2448.96	0.00863157	-0.0303619	0
2478.96	0.00851702	-0.0302181	0
2508.96	0.00859339	-0.0300317	0
2538.96	0.00876521	-0.0298071	0
2568.96	0.00861248	-0.029648	0
2598.96	0.00866975	-0.0295067	0
2628.96	0.00865066	-0.02923	0
2658.96	0.00876521	-0.0290703	0
2688.96	0.00861248	-0.0288781	0
2718.96	0.00861248	-0.0287852	0
2748.96	0.00861248	-0.028609	0
2778.96	0.00861248	-0.0283984	0
2808.96	0.00865066	-0.0282145	0
2838.96	0.00866975	-0.0280376	0
2868.96	0.00866975	-0.0279524	0
2898.96	0.00872702	-0.027764	0
2928.96	0.00865066	-0.0276304	0
2958.96	0.00865066	-0.0274192	0
2988.96	0.00863157	-0.0272849	0
3018.96	0.00866975	-0.0271971	0
3048.96	0.00859339	-0.0269878	0
3078.96	0.00870793	-0.0268657	0
3108.96	0.00865066	-0.0267295	0
3138.96	0.00859339	-0.0266092	0
3168.96	0.00876521	-0.026412	0
3198.96	0.00859339	-0.0262561	0
3228.96	0.00863157	-0.0262625	0
3258.96	0.00865066	-0.0261244	0
3288.96	0.0085743	-0.0259405	0
3318.96	0.00868884	-0.0257821	0
3348.96	0.00872702	-0.0256339	0
3378.96	0.00866975	-0.0255461	0
3408.96	0.00855521	-0.0254347	0
3438.96	0.00866975	-0.0252438	0
3468.96	0.00865066	-0.0251268	0
3498.96	0.00866975	-0.0250733	0
3528.96	0.00870793	-0.0248685	0
3558.96	0.00861248	-0.0247832	0
3588.96	0.00865066	-0.0246884	0
3618.96	0.0087843	-0.0245344	0
3648.96	0.00865066	-0.02446	0
3678.96	0.00874612	-0.0243518	0
3708.96	0.00872702	-0.024271	0
3738.96	0.00861248	-0.0241559	0
3768.96	0.00872702	-0.0240356	0
3798.96	0.00868884	-0.0239338	0
3828.96	0.00861248	-0.0238549	0
3858.96	0.00870793	-0.0236844	0
3888.96	0.00861248	-0.0236239	0
3918.96	0.00865066	-0.023547	0
3948.96	0.00870793	-0.0234114	0
3978.96	0.00866975	-0.0233275	0
4008.96	0.00865066	-0.0232396	0
4038.96	0.00859339	-0.0231385	0
4068.96	0.00870793	-0.0229737	0
4098.96	0.00868884	-0.0228585	0
4128.96	0.00876521	-0.0227745	0
4158.96	0.00865066	-0.0227096	0
4188.96	0.00859339	-0.0226161	0
4218.96	0.00866975	-0.022527	0
4248.96	0.00866975	-0.0224023	0
4278.96	0.00863157	-0.0223304	0
4308.96	0.00865066	-0.0222439	0
4338.96	0.00868884	-0.0221217	0
4368.96	0.00870793	-0.0220778	0
4398.96	0.00876521	-0.0219449	0
4428.96	0.00868884	-0.0218412	0
4458.96	0.00859339	-0.0218132	0
4488.96	0.00868884	-0.0216974	0
4518.96	0.00861248	-0.021656	0
4548.96	0.00872702	-0.0215778	0
4578.96	0.00870793	-0.0214849	0
4608.96	0.00868884	-0.0213983	0
4638.96	0.00868884	-0.0213023	0
4668.96	0.00859339	-0.0212571	0
4698.96	0.00870793	-0.0211775	0
4728.96	0.00863157	-0.0210764	0
4758.96	0.00868884	-0.0209918	0
4788.96	0.00870793	-0.0209192	0
4818.96	0.00872702	-0.0208683	0
4848.96	0.00866975	-0.0207939	0
4878.96	0.00874612	-0.0207207	0
4908.96	0.00870793	-0.0206113	0
4938.96	0.00874612	-0.0205438	0
4968.96	0.00868884	-0.0204802	0
4998.96	0.00866975	-0.0204083	0
5028.96	0.00865066	-0.0203154	0
5058.96	0.00876521	-0.0202741	0
5088.96	0.0085743	-0.0202047	0
5118.96	0.00866975	-0.0201608	0
5148.96	0.00868884	-0.0200482	0
5178.96	0.00870793	-0.0199909	0
5208.96	0.00865066	-0.0198777	0
5238.96	0.00865066	-0.0198459	0
5268.96	0.00866975	-0.0197593	0
5298.96	0.00866975	-0.0196537	0
5328.96	0.00865066	-0.0196232	0
5358.96	0.00870793	-0.0195627	0
5388.96	0.00866975	-0.0195576	0
5418.96	0.00861248	-0.0194673	0
5448.96	0.0085743	-0.0194202	0
5478.96	0.00868884	-0.0193846	0
5508.96	0.00866975	-0.0192713	0
5538.96	0.00874612	-0.0192109	0
5568.96	0.00868884	-0.0191333	0
5598.96	0.00866975	-0.0190868	0
5628.96	0.00870793	-0.0190639	0
5658.96	0.00870793	-0.0189596	0
5688.96	0.00866975	-0.0188711	0
5718.96	0.00865066	-0.0188247	0
5748.96	0.00863157	-0.0187821	0
5778.96	0.00865066	-0.0187032	0
5808.96	0.00866975	-0.0186752	0
5838.96	0.00874612	-0.0186395	0
5868.96	0.00876521	-0.0185492	0
5898.96	0.00872702	-0.0184843	0
5928.96	0.00868884	-0.0184035	0
5958.96	0.00863157	-0.0184086	0
5988.96	0.00865066	-0.0183252	0
6018.96	0.00868884	-0.0182813	0
6048.96	0.00865066	-0.0182406	0
6078.96	0.00872702	-0.0181223	0
6108.96	0.00870793	-0.0181388	0
6138.96	0.00866975	-0.0180338	0
6168.96	0.00876521	-0.017981	0
6198.96	0.00866975	-0.0179206	0
6228.96	0.00876521	-0.0178773	0
6258.96	0.00859339	-0.0178888	0
6288.96	0.00876521	-0.0177933	0
6318.96	0.00868884	-0.0177831	0
6348.96	0.00872702	-0.0176756	0
6378.96	0.00865066	-0.0176521	0
6408.96	0.00866975	-0.0176031	0
6438.96	0.00874612	-0.0175121	0
6468.96	0.00863157	-0.0174873	0
6498.96	0.00859339	-0.0174211	0
6528.96	0.00865066	-0.0174167	0
6558.96	0.00861248	-0.0173276	0
6588.96	0.00866975	-0.0172792	0
6618.96	0.00861248	-0.017269	0
6648.96	0.00863157	-0.0171698	0
6678.96	0.00865066	-0.0171761	0
6708.96	0.00855521	-0.0170731	0
6738.96	0.00855521	-0.0170763	0
6768.96	0.00863157	-0.0169312	0
6798.96	0.00880339	-0.0169267	0
6828.96	0.00872702	-0.0169127	0
6858.96	0.00874612	-0.0168173	0
6888.96	0.00866975	-0.0168319	0
6918.96	0.00866975	-0.0167403	0
6948.96	0.00866975	-0.0167645	0
6978.96	0.00865066	-0.0166048	0
7008.96	0.00872702	-0.016615	0
7038.96	0.00866975	-0.0165736	0
7068.96	0.00866975	-0.0164865	0
7098.96	0.00866975	-0.0164559	0
7128.96	0.00863157	-0.0164343	0
7158.96	0.00866975	-0.0163713	0
7188.96	0.00865066	-0.0163369	0
7218.96	0.00866975	-0.0163013	0
7248.96	0.00866975	-0.0162638	0
7278.96	0.00870793	-0.0162269	0
7308.96	0.00872702	-0.0161492	0
7338.96	0.00872702	-0.0161416	0
7368.96	0.00868884	-0.0160773	0
7398.96	0.00863157	-0.0160322	0
7428.96	0.00866975	-0.0160366	0
7458.96	0.00868884	-0.0159825	0
7488.96	0.00872702	-0.0159431	0
7518.96	0.00865066	-0.0159151	0
7548.96	0.00859339	-0.0158216	0
7578.96	0.00865066	-0.0158082	0
7608.96	0.00876521	-0.015749	0
7638.96	0.00861248	-0.0157605	0
7668.96	0.00859339	-0.0156402	0
7698.96	0.00866975	-0.015665	0
7728.96	0.00876521	-0.0156345	0
7758.96	0.00863157	-0.0155932	0
7788.96	0.00861248	-0.0155473	0
7818.96	0.00876521	-0.0155263	0
7848.96	0.00866975	-0.0155053	0
7878.96	0.0087843	-0.0154156	0
7908.96	0.00863157	-0.0153584	0
7938.96	0.00865066	-0.0153355	0
7968.96	0.00872702	-0.0153234	0
7998.96	0.00863157	-0.0153056	0
8028.96	0.00874612	-0.0152139	0
8058.96	0.00876521	-0.015212	0
8088.96	0.00868884	-0.0151866	0
8118.96	0.00868884	-0.0151694	0
8148.96	0.00872702	-0.0150663	0
8178.96	0.00874612	-0.0150695	0
8208.96	0.00866975	-0.015032	0
8238.96	0.0087843	-0.015025	0
8268.96	0.00865066	-0.0149963	0
8298.96	0.00874612	-0.0149136	0
8328.96	0.00865066	-0.0149174	0
8358.96	0.00872702	-0.0148226	0
8388.96	0.00872702	-0.0147927	0
8418.96	0.00870793	-0.0147647	0
8448.96	0.00868884	-0.014759	0
8478.96	0.00866975	-0.0146922	0
8508.96	0.00874612	-0.0146782	0
8538.96	0.00855521	-0.0146114	0
8568.96	0.00876521	-0.0146337	0
8598.96	0.00866975	-0.0145618	0
8628.96	0.00870793	-0.0145554	0
8658.96	0.00865066	-0.0145541	0
8688.96	0.00870793	-0.0144765	0
8718.96	0.00872702	-0.0144657	0
8748.96	0.00866975	-0.0144314	0
8778.96	0.00868884	-0.0144695	0
8808.96	0.00876521	-0.0143995	0
8838.96	0.00870793	-0.0143149	0
8868.96	0.00872702	-0.0143092	0
8898.96	0.00861248	-0.0142844	0
8928.96	0.00872702	-0.0142246	0
8958.96	0.00868884	-0.014215	0
8988.96	0.00866975	-0.0142239	0
9018.96	0.00872702	-0.0141368	0
9048.96	0.0087843	-0.0141056	0
9078.96	0.00863157	-0.014091	0
9108.96	0.00868884	-0.0140782	0
9138.96	0.00868884	-0.0140458	0
9168.96	0.00874612	-0.0140012	0
9198.96	0.00870793	-0.0139777	0
9228.96	0.00866975	-0.01393	0
9258.96	0.00866975	-0.0139287	0
9288.96	0.00866975	-0.0138543	0
9318.96	0.0085743	-0.0139211	0
9348.96	0.00876521	-0.0138212	0
9378.96	0.00872702	-0.0138695	0
9408.96	0.00870793	-0.0137849	0
9438.96	0.00872702	-0.0137741	0
9468.96	0.00855521	-0.0137213	0
9498.96	0.00863157	-0.01372	0
9528.96	0.0087843	-0.0136405	0
9558.96	0.00861248	-0.0136373	0
9588.96	0.00868884	-0.0136023	0
9618.96	0.00866975	-0.0136125	0
9648.96	0.00868884	-0.0135533	0
9678.96	0.00876521	-0.0135559	0
9708.96	0.00870793	-0.0135037	0
9738.96	0.00868884	-0.0134502	0
9768.96	0.0087843	-0.0134897	0
9798.96	0.0087843	-0.0134153	0
9828.96	0.00870793	-0.0134413	0
9858.96	0.00866975	-0.0133656	0
9888.96	0.00872702	-0.0133675	0
9918.96	0.0087843	-0.0133096	0
9948.96	0.00863157	-0.0132664	0
9978.96	0.00866975	-0.0132511	0
10009	0.00865066	-0.0132187	0
10039	0.00868884	-0.0132136	0
10069	0.00865066	-0.0131837	0
10099	0.0085743	-0.0132008	0
10129	0.00876521	-0.0131474	0
10159	0.00866975	-0.0131544	0
10189	0.00868884	-0.0131308	0
10219	0.00863157	-0.0130672	0
10249	0.00865066	-0.0130119	0
10279	0.00880339	-0.0130297	0
10309	0.00866975	-0.0129769	0
10339	0.00872702	-0.012975	0
10369	0.00880339	-0.0129508	0
10399	0.00866975	-0.0129024	0
10429	0.00870793	-0.0129311	0
10459	0.00859339	-0.0128573	0
10489	0.00866975	-0.0128299	0
10519	0.00870793	-0.012793	0
10549	0.00861248	-0.0128579	0
10579	0.00868884	-0.0127497	0
10609	0.00874612	-0.012786	0
10639	0.00865066	-0.0127574	0
10669	0.00874612	-0.0127046	0
10699	0.00872702	-0.0127135	0
10729	0.00876521	-0.012653	0
10759	0.00872702	-0.0126174	0
10789	0.00865066	-0.0126715	0
10819	0.00874612	-0.0126123	0
10849	0.00868884	-0.0125589	0
10879	0.0087843	-0.0125964	0
10909	0.00861248	-0.0125315	0
10939	0.00876521	-0.012541	0
10969	0.00868884	-0.0125073	0
10999	0.00866975	-0.0124577	0
11029	0.0087843	-0.0124577	0
11059	0.00868884	-0.0124348	0
11089	0.00876521	-0.0124367	0
11119	0.00880339	-0.0123584	0
11149	0.00872702	-0.0123533	0
11179	0.00870793	-0.0123292	0
11209	0.00870793	-0.0122942	0
11239	0.00876521	-0.0122706	0
11269	0.00870793	-0.0123533	0
11299	0.00870793	-0.0122789	0
11329	0.00866975	-0.0122083	0
11359	0.00866975	-0.0122293	0
11389	0.00865066	-0.0122038	0
11419	0.00866975	-0.0121828	0
11449	0.00872702	-0.0121472	0
11479	0.00870793	-0.0120944	0
11509	0.00876521	-0.0121249	0
11539	0.00872702	-0.0120969	0
11569	0.00866975	-0.0121103	0
11599	0.00868884	-0.0120759	0
11629	0.00865066	-0.0120721	0
11659	0.00865066	-0.0120619	0
11689	0.00872702	-0.0120098	0
11719	0.00863157	-0.0119856	0
11749	0.0085743	-0.0119926	0
11779	0.00863157	-0.0120174	0
11809	0.00870793	-0.0119461	0
11839	0.00855521	-0.0119691	0
11869	0.00865066	-0.0119455	0
11899	0.00874612	-0.0118902	0
11929	0.00863157	-0.0118603	0
11959	0.00872702	-0.0118393	0
11989	0.00868884	-0.0118342	0
12019	0.00866975	-0.0118004	0
12049	0.00868884	-0.0117896	0
12079	0.00866975	-0.0117877	0
12109	0.00866975	-0.0117572	0
12139	0.00863157	-0.011733	0
12169	0.00868884	-0.0117394	0
12199	0.00853611	-0.0117375	0
12229	0.00870793	-0.0117025	0
12259	0.00866975	-0.0117247	0
12289	0.00863157	-0.0116713	0
12319	0.00870793	-0.0116318	0
12349	0.00868884	-0.0115733	0
12379	0.00870793	-0.0116287	0
12409	0.00863157	-0.0115618	0
12439	0.00872702	-0.011544	0
12469	0.00866975	-0.0115415	0
12499	0.00865066	-0.0115644	0
12529	0.00870793	-0.0115618	0
12559	0.00859339	-0.0115046	0
12589	0.00863157	-0.0115453	0
12619	0.00866975	-0.0115122	0
12649	0.00876521	-0.0115326	0
12679	0.00872702	-0.011476	0
12709	0.0087843	-0.011476	0
12739	0.00861248	-0.01146	0
12769	0.00861248	-0.0114174	0
12799	0.00880339	-0.0113875	0
12829	0.00876521	-0.0113532	0
12859	0.00865066	-0.0113939	0
12889	0.00866975	-0.0113353	0
12919	0.00865066	-0.0113449	0
12949	0.0087843	-0.0112679	0
12979	0.0087843	-0.0112494	0
13009	0.00868884	-0.0112692	0
13039	0.00868884	-0.0112584	0
13069	0.00863157	-0.0112335	0
13099	0.00866975	-0.0111801	0
13129	0.00865066	-0.011175	0
13159	0.00870793	-0.0111954	0
13189	0.00863157	-0.0111375	0
13219	0.00872702	-0.0111127	0
13249	0.00868884	-0.0111177	0
13279	0.00866975	-0.011077	0
13309	0.0087843	-0.0111171	0
13339	0.00870793	-0.0110274	0
13369	0.00868884	-0.0110064	0
13399	0.00872702	-0.0110369	0
13429	0.00872702	-0.0110287	0
13459	0.00870793	-0.011084	0
13489	0.00865066	-0.0109829	0
13519	0.00865066	-0.0110293	0
13549	0.00868884	-0.0109091	0
13579	0.00872702	-0.0109256	0
13609	0.00865066	-0.010918	0
13639	0.00872702	-0.0108811	0
13669	0.00874612	-0.0109154	0
13699	0.00865066	-0.0108683	0
13729	0.00866975	-0.0108925	0
13759	0.00876521	-0.0108225	0
13789	0.00872702	-0.0107557	0
13819	0.00866975	-0.0108461	0
13849	0.00874612	-0.0107977	0
13879	0.00865066	-0.0107786	0
13909	0.00853611	-0.0107691	0
13939	0.00863157	-0.0107214	0
13969	0.00870793	-0.0106654	0
13999	0.00874612	-0.0107564	0
14029	0.00874612	-0.0106895	0
14059	0.00868884	-0.0106838	0
14089	0.00882248	-0.0106215	0
14119	0.00872702	-0.0106119	0
14149	0.00872702	-0.0106291	0
14179	0.00866975	-0.0106189	0
14209	0.00861248	-0.0106469	0
14239	0.00872702	-0.0105737	0
14269	0.00870793	-0.0105445	0
14299	0.00863157	-0.0105368	0
14329	0.00874612	-0.0105197	0
14359	0.00870793	-0.0105101	0
14389	0.00874612	-0.0104554	0
14419	0.00865066	-0.0104509	0
14449	0.00865066	-0.0104961	0
14479	0.00874612	-0.0104586	0
14509	0.00876521	-0.0104624	0
14539	0.00872702	-0.0104338	0
14569	0.00868884	-0.010435	0
14599	0.00866975	-0.0104198	0
14629	0.00876521	-0.0104147	0
14659	0.00866975	-0.0103568	0
14689	0.00868884	-0.0103657	0
14719	0.00861248	-0.0103409	0
14749	0.00868884	-0.0103339	0
14779	0.00863157	-0.0103269	0
14809	0.00868884	-0.0102855	0
14839	0.00865066	-0.0102804	0
14869	0.00863157	-0.0102365	0
14899	0.00865066	-0.0102467	0
14929	0.00866975	-0.0102225	0
14959	0.00868884	-0.0102066	0
14989	0.00865066	-0.0101964	0
15019	0.00872702	-0.0101958	0
15049	0.00868884	-0.0101824	0
15079	0.0087843	-0.0101265	0
15109	0.00865066	-0.0101271	0
15139	0.00870793	-0.0101016	0
15169	0.00870793	-0.0101176	0
15199	0.00872702	-0.0100966	0
15229	0.00868884	-0.0100221	0
15259	0.00866975	-0.0101093	0
15289	0.00874612	-0.0100304	0
15319	0.00870793	-0.0100132	0
15349	0.00872702	-0.00995785	0
15379	0.00870793	-0.0100056	0
15409	0.00859339	-0.00996485	0
15439	0.00870793	-0.00996803	0
15469	0.00868884	-0.00995849	0
15499	0.0087843	-0.00997058	0
15529	0.00882248	-0.00989359	0
15559	0.00870793	-0.00993876	0
15589	0.00876521	-0.00988214	0
15619	0.00872702	-0.00987514	0
15649	0.00865066	-0.00983824	0
15679	0.00865066	-0.00981215	0
15709	0.00868884	-0.0098236	0
15739	0.00874612	-0.00978797	0
15769	0.00861248	-0.00973198	0
15799	0.0087843	-0.00977525	0
15829	0.00872702	-0.00977779	0
15859	0.00866975	-0.0097727	0
15889	0.00874612	-0.00973707	0
15919	0.00865066	-0.00972689	0
15949	0.00868884	-0.0097638	0
15979	0.00872702	-0.00969762	0
16009	0.00876521	-0.00966518	0
16039	0.00874612	-0.00965945	0
16069	0.00866975	-0.00968872	0
16099	0.00874612	-0.00965818	0
16129	0.00866975	-0.009606	0
16159	0.00868884	-0.00959264	0
16189	0.00868884	-0.00959264	0
16219	0.00868884	-0.00962573	0
16249	0.00880339	-0.00956592	0
16279	0.00872702	-0.00956656	0
16309	0.00866975	-0.00955001	0
16339	0.00870793	-0.00952838	0
16369	0.00880339	-0.00952456	0
16399	0.00872702	-0.00952902	0
16429	0.00874612	-0.00946857	0
16459	0.00865066	-0.00947684	0
16489	0.00868884	-0.00945648	0
16519	0.00880339	-0.00943612	0
16549	0.00861248	-0.00938013	0
16579	0.00872702	-0.00941513	0
16609	0.00863157	-0.00940049	0
16639	0.00863157	-0.00936614	0
16669	0.00872702	-0.00936932	0
16699	0.00872702	-0.0093515	0
16729	0.00876521	-0.0093795	0
16759	0.00874612	-0.00937759	0
16789	0.00865066	-0.00932732	0
16819	0.00870793	-0.00931142	0
16849	0.00861248	-0.00927897	0
16879	0.00866975	-0.0092777	0
16909	0.00868884	-0.00929678	0
16939	0.00870793	-0.00926052	0
16969	0.00863157	-0.00926624	0
16999	0.00868884	-0.00922107	0
17029	0.00865066	-0.00919371	0
17059	0.00874612	-0.00924843	0
17089	0.00872702	-0.00918226	0
17119	0.00872702	-0.00915554	0
17149	0.00868884	-0.00911927	0
17179	0.00870793	-0.00916699	0
17209	0.00876521	-0.00918099	0
17239	0.00870793	-0.00908109	0
17269	0.00872702	-0.00911036	0
17299	0.00865066	-0.00909382	0
17329	0.00874612	-0.00909446	0
17359	0.00870793	-0.00909318	0
17389	0.00866975	-0.00905819	0
17419	0.00876521	-0.00904865	0
17449	0.00865066	-0.00903783	0
17479	0.00870793	-0.00901365	0
17509	0.00865066	-0.00899774	0
17539	0.00868884	-0.00897484	0
17569	0.00874612	-0.00897484	0
17599	0.00870793	-0.00901111	0
17629	0.00876521	-0.00896021	0
17659	0.00880339	-0.00897611	0
17689	0.00863157	-0.00895193	0
17719	0.00876521	-0.00895575	0
17749	0.00876521	-0.00892012	0
17779	0.00874612	-0.0089373	0
17809	0.00872702	-0.0088654	0
17839	0.00870793	-0.00891058	0
17869	0.0087843	-0.00887622	0
17899	0.0087843	-0.00888577	0
17929	0.00874612	-0.00882659	0
17959	0.00868884	-0.00885395	0
17989	0.00868884	-0.00881323	0
18019	0.00874612	-0.00879923	0
18049	0.00866975	-0.00878969	0
18079	0.00868884	-0.00877315	0
18109	0.00868884	-0.00878396	0
18139	0.00863157	-0.00872543	0
18169	0.00874612	-0.00876488	0
18199	0.0085743	-0.00875533	0
18229	0.00866975	-0.0087477	0
18259	0.00870793	-0.00873625	0
18289	0.00865066	-0.00864653	0
18319	0.00872702	-0.0087057	0
18349	0.00866975	-0.00871843	0
18379	0.00868884	-0.00866562	0
18409	0.00868884	-0.00868153	0
18439	0.00872702	-0.00865417	0
18469	0.00866975	-0.00868534	0
18499	0.00872702	-0.00869871	0
18529	0.00863157	-0.00870125	0
18559	0.0085743	-0.0086459	0
18589	0.00874612	-0.00867198	0
18619	0.00865066	-0.00862554	0
18649	0.00870793	-0.00866371	0
18679	0.00866975	-0.00865417	0
18709	0.00872702	-0.00864272	0
18739	0.00866975	-0.00861154	0
18769	0.00868884	-0.00857336	0
18799	0.00868884	-0.00861981	0
18829	0.00868884	-0.00863254	0
18859	0.0085743	-0.00857973	0
18889	0.00874612	-0.00858609	0
18919	0.00859339	-0.00852628	0
18949	0.00874612	-0.00851292	0
18979	0.00874612	-0.00851419	0
19009	0.00870793	-0.00849829	0
19039	0.00859339	-0.00848365	0
19069	0.00884157	-0.0084862	0
19099	0.00870793	-0.00852119	0
19129	0.00868884	-0.00844548	0
19159	0.00863157	-0.00847983	0
19189	0.0087843	-0.00844293	0
19219	0.00868884	-0.00842066	0
19249	0.00870793	-0.00839776	0
19279	0.00872702	-0.00838567	0
19309	0.00876521	-0.00836531	0
19339	0.00872702	-0.00835895	0
19369	0.00880339	-0.00837358	0
19399	0.00870793	-0.00836404	0
19429	0.00874612	-0.00836404	0
19459	0.00866975	-0.00831123	0
19489	0.00880339	-0.00829341	0
19519	0.00880339	-0.00829787	0
19549	0.0087843	-0.00827941	0
19579	0.00870793	-0.00828769	0
19609	0.00876521	-0.00822597	0
19639	0.00865066	-0.00826033	0
19669	0.00868884	-0.00827242	0
19699	0.00870793	-0.00826287	0
19729	0.00870793	-0.00824124	0
19759	0.00872702	-0.00822915	0
19789	0.00866975	-0.0082037	0
19819	0.00866975	-0.00818907	0
19849	0.00863157	-0.00819352	0
19879	0.00865066	-0.00815534	0
19909	0.00868884	-0.00818843	0
19939	0.00874612	-0.00815598	0
19969	0.00865066	-0.00817125	0
19999	0.00872702	-0.0081528	0
20029	0.00865066	-0.00814389	0
20059	0.00874612	-0.00808917	0
20089	0.00872702	-0.00809554	0
20119	0.00870793	-0.0080809	0
20149	0.00863157	-0.00811526	0
20179	0.00866975	-0.00806245	0
20209	0.00872702	-0.00809363	0
20239	0.00876521	-0.00808345	0
20269	0.00866975	-0.008044	0
20299	0.00874612	-0.00804782	0
20329	0.0087843	-0.00805354	0
20359	0.00874612	-0.00801028	0
20389	0.00865066	-0.00799437	0
20419	0.0087843	-0.00798801	0
20449	0.00866975	-0.00799755	0
20479	0.00874612	-0.00801346	0
20509	0.00872702	-0.00800328	0
20539	0.00868884	-0.00797974	0
20569	0.00866975	-0.00792948	0
20599	0.00868884	-0.0079492	0
20629	0.00880339	-0.00792693	0
20659	0.00870793	-0.00793011	0
20689	0.00866975	-0.00796829	0
20719	0.00874612	-0.00788748	0
20749	0.00866975	-0.00791866	0
20779	0.00865066	-0.00786458	0
20809	0.00868884	-0.00788875	0
20839	0.0087843	-0.00786012	0
20869	0.00874612	-0.00779777	0
20899	0.00876521	-0.00783913	0
20929	0.0087843	-0.00783213	0
20959	0.00865066	-0.00784294	0
20989	0.00882248	-0.00780095	0
21019	0.00872702	-0.00782131	0
21049	0.00872702	-0.0077755	0
21079	0.00870793	-0.00777487	0
21109	0.00872702	-0.00778759	0
21139	0.00876521	-0.00776469	0
21169	0.00861248	-0.00778568	0
21199	0.00880339	-0.00774051	0
21229	0.00874612	-0.00772651	0
21259	0.00870793	-0.00772842	0
21289	0.00872702	-0.00774242	0
21319	0.00872702	-0.00768579	0
21349	0.00874612	-0.00772397	0
21379	0.00876521	-0.00771569	0
21409	0.00880339	-0.00768197	0
21439	0.00866975	-0.00768579	0
21469	0.00874612	-0.00766861	0
21499	0.00863157	-0.00763171	0
21529	0.00868884	-0.00763489	0
21559	0.00876521	-0.00763807	0
21589	0.00865066	-0.00766479	0
21619	0.00863157	-0.00761898	0
21649	0.00874612	-0.00759926	0
21679	0.00868884	-0.00762344	0
21709	0.00880339	-0.00755981	0
21739	0.00868884	-0.00759226	0
21769	0.00876521	-0.00756363	0
21799	0.00872702	-0.00759735	0
21829	0.00870793	-0.00757572	0
21859	0.00872702	-0.00756808	0
21889	0.00880339	-0.00751209	0
21919	0.00866975	-0.00753627	0
21949	0.00866975	-0.00750191	0
21979	0.00874612	-0.00752673	0
22009	0.00872702	-0.00745928	0
22039	0.00874612	-0.00752482	0
22069	0.00870793	-0.007514	0
22099	0.00874612	-0.00750128	0
22129	0.0087843	-0.00749555	0
22159	0.00874612	-0.00744401	0
22189	0.0087843	-0.00749364	0
22219	0.00870793	-0.00750446	0
22249	0.00870793	-0.0074701	0
22279	0.00868884	-0.00741984	0
22309	0.00870793	-0.00739566	0
22339	0.00868884	-0.00738739	0
22369	0.00865066	-0.0074402	0
22399	0.00866975	-0.00741093	0
22429	0.00865066	-0.00736703	0
22459	0.00859339	-0.00737275	0
22489	0.00863157	-0.00733903	0
22519	0.00868884	-0.00736575	0
22549	0.00882248	-0.00735748	0
22579	0.00874612	-0.00732885	0
22609	0.00868884	-0.00732567	0
22639	0.00870793	-0.00735621	0
22669	0.00870793	-0.00730086	0
22699	0.00872702	-0.00730531	0
22729	0.00870793	-0.00735621	0
22759	0.00870793	-0.00732122	0
22789	0.00865066	-0.00731231	0
22819	0.00868884	-0.00729958	0
22849	0.00880339	-0.00727032	0
22879	0.00876521	-0.0072595	0
22909	0.00874612	-0.00726459	0
22939	0.00874612	-0.00724296	0
22969	0.00851702	-0.00722578	0
22999	0.00865066	-0.00726268	0
23029	0.00865066	-0.00724423	0
23059	0.00866975	-0.00725632	0
23089	0.00870793	-0.00721624	0
23119	0.00866975	-0.0071876	0
23149	0.0087843	-0.00719778	0
23179	0.00868884	-0.00723469	0
23209	0.00865066	-0.00722069	0
23239	0.00874612	-0.00720542	0
23269	0.00874612	-0.00718569	0
23299	0.00872702	-0.00717106	0
23329	0.00865066	-0.00717233	0
23359	0.00876521	-0.00712016	0
23389	0.00874612	-0.0071787	0
23419	0.0087843	-0.0070858	0
23449	0.00882248	-0.00710107	0
23479	0.0087843	-0.0070699	0
23509	0.00870793	-0.00715197	0
23539	0.00870793	-0.00709471	0
23569	0.00872702	-0.00706417	0
23599	0.00872702	-0.00704826	0
23629	0.00868884	-0.00705844	0
23659	0.00870793	-0.00706799	0
23689	0.00870793	-0.00706672	0
23719	0.00874612	-0.00704699	0
23749	0.00874612	-0.00706417	0
23779	0.00872702	-0.00704063	0
23809	0.00870793	-0.00705844	0
23839	0.00874612	-0.007005	0
23869	0.00882248	-0.00699673	0
23899	0.00863157	-0.00700945	0
23929	0.00868884	-0.00703045	0
23959	0.00872702	-0.00700882	0
23989	0.00872702	-0.00698209	0
24019	0.00868884	-0.00696619	0
24049	0.00874612	-0.0069471	0
24079	0.00868884	-0.0069471	0
24109	0.00880339	-0.00696428	0
24139	0.0087843	-0.0069471	0
24169	0.00872702	-0.00696237	0
24199	0.00872702	-0.00689938	0
24229	0.00868884	-0.00694392	0
24259	0.00861248	-0.00692165	0
24289	0.00872702	-0.00691783	0
24319	0.00874612	-0.00687329	0
24349	0.00865066	-0.00691338	0
24379	0.00872702	-0.00690511	0
24409	0.00874612	-0.00687711	0
24439	0.00868884	-0.00687966	0
24469	0.00868884	-0.00683703	0
24499	0.00868884	-0.0068593	0
24529	0.00868884	-0.00685866	0
24559	0.00870793	-0.00681412	0
24589	0.00872702	-0.00680267	0
24619	0.00872702	-0.00687075	0
24649	0.00861248	-0.00681858	0
24679	0.00866975	-0.00679885	0
24709	0.00863157	-0.00687838	0
24739	0.00872702	-0.00679631	0
24769	0.00872702	-0.00677213	0
24799	0.00870793	-0.00681221	0
24829	0.00865066	-0.00682049	0
24859	0.00866975	-0.00676386	0
24889	0.00861248	-0.00679567	0
24919	0.00880339	-0.00679249	0
24949	0.00876521	-0.00676322	0
24979	0.00880339	-0.00676958	0
25009	0.00868884	-0.00673395	0
25039	0.00870793	-0.00674286	0
25069	0.00872702	-0.00674223	0
25099	0.00866975	-0.00675368	0
25129	0.00870793	-0.00671296	0
25159	0.0087843	-0.00672123	0
25189	0.00863157	-0.00675304	0
25219	0.00876521	-0.00668496	0
25249	0.00865066	-0.00667415	0
25279	0.00874612	-0.00667542	0
25309	0.00863157	-0.00665633	0
25339	0.00868884	-0.00668305	0
25369	0.00870793	-0.0066417	0
25399	0.00870793	-0.00665951	0
25429	0.00866975	-0.00667033	0
25459	0.0087843	-0.00661561	0
25489	0.00874612	-0.00663788	0
25519	0.00880339	-0.00662261	0
25549	0.00880339	-0.00664233	0
25579	0.00874612	-0.00660034	0
25609	0.00870793	-0.00664106	0
25639	0.0087843	-0.00661307	0
25669	0.00866975	-0.00661879	0
25699	0.00872702	-0.00658316	0
25729	0.00876521	-0.0066048	0
25759	0.00870793	-0.0065698	0
25789	0.00870793	-0.00657616	0
25819	0.00868884	-0.00657362	0
25849	0.00870793	-0.00658507	0
25879	0.00870793	-0.00651636	0
25909	0.00866975	-0.00658634	0
25939	0.00872702	-0.00655008	0
25969	0.00866975	-0.0065628	0
25999	0.00868884	-0.00652463	0
26029	0.00870793	-0.00652972	0
26059	0.00865066	-0.00652908	0
26089	0.00870793	-0.0064979	0
26119	0.00866975	-0.00651699	0
26149	0.0087843	-0.00647182	0
26179	0.0087843	-0.00651763	0
26209	0.00870793	-0.00648391	0
26239	0.00872702	-0.00647627	0
26269	0.00882248	-0.0065049	0
26299	0.00874612	-0.00649281	0
26329	0.00870793	-0.00645718	0
26359	0.00866975	-0.00647182	0
26389	0.00870793	-0.00643301	0
26419	0.00882248	-0.00641519	0
26449	0.00872702	-0.00646991	0
26479	0.00874612	-0.00640883	0
26509	0.00868884	-0.00643873	0
26539	0.00872702	-0.00643301	0
26569	0.00870793	-0.00642283	0
26599	0.00866975	-0.00640819	0
26629	0.00868884	-0.0064311	0
26659	0.00872702	-0.00640183	0
26689	0.00861248	-0.00636684	0
26719	0.00868884	-0.00642155	0
26749	0.00872702	-0.00637829	0
26779	0.00876521	-0.00634711	0
26809	0.00868884	-0.00638211	0
26839	0.00870793	-0.00637511	0
26869	0.00868884	-0.00635666	0
26899	0.00865066	-0.00639483	0
26929	0.00866975	-0.00636238	0
26959	0.00872702	-0.00636493	0
26989	0.00868884	-0.00633248	0
27019	0.00859339	-0.00630448	0
27049	0.00880339	-0.00633566	0
27079	0.00876521	-0.00631148	0
27109	0.00863157	-0.00633184	0
27139	0.00870793	-0.00631594	0
27169	0.00868884	-0.00630448	0
27199	0.00868884	-0.00625867	0
27229	0.00874612	-0.0062943	0
27259	0.00866975	-0.00631721	0
27289	0.00868884	-0.00630194	0
27319	0.00872702	-0.00633311	0
27349	0.00876521	-0.0062943	0
27379	0.00874612	-0.00627331	0
27409	0.00872702	-0.00627712	0
27439	0.00876521	-0.00624022	0
27469	0.00865066	-0.00623259	0
27499	0.00872702	-0.00625422	0
27529	0.00874612	-0.00620905	0
27559	0.00876521	-0.00619441	0
27589	0.00870793	-0.00626058	0
27619	0.00868884	-0.00618232	0
27649	0.00863157	-0.00620714	0
27679	0.00880339	-0.0061995	0
27709	0.00874612	-0.00619568	0
27739	0.00865066	-0.00617723	0
27769	0.00870793	-0.00619568	0
27799	0.00866975	-0.00621604	0
27829	0.00868884	-0.00615433	0
27859	0.00870793	-0.00614478	0
27889	0.00876521	-0.00619887	0
27919	0.00865066	-0.00621286	0
27949	0.00870793	-0.00619378	0
27979	0.00870793	-0.00615433	0
28009	0.00874612	-0.00612379	0
28039	0.00876521	-0.0061486	0
28069	0.00865066	-0.00611043	0
28099	0.00865066	-0.00614797	0
28129	0.00872702	-0.00612761	0
28159	0.00863157	-0.00609961	0
28189	0.00868884	-0.00612951	0
28219	0.00872702	-0.00612633	0
28249	0.00882248	-0.00608179	0
28279	0.00874612	-0.00610724	0
28309	0.00872702	-0.00609452	0
28339	0.00874612	-0.00609007	0
28369	0.00880339	-0.00606652	0
28399	0.00874612	-0.00611997	0
28429	0.00872702	-0.00609134	0
28459	0.00863157	-0.0060767	0
28489	0.00868884	-0.00606334	0
28519	0.00866975	-0.00604362	0
28549	0.00865066	-0.0060608	0
28579	0.00870793	-0.00607289	0
28609	0.00866975	-0.0060468	0
28639	0.00872702	-0.00604553	0
28669	0.00868884	-0.00604744	0
28699	0.0087843	-0.00605635	0
28729	0.00870793	-0.00602262	0
28759	0.00868884	-0.00606907	0
28789	0.00872702	-0.00601181	0
28819	0.00874612	-0.00602008	0
28849	0.00874612	-0.00598508	0
28879	0.00874612	-0.00600799	0
28909	0.00863157	-0.00606652	0
28939	0.00880339	-0.00597809	0
28969	0.00868884	-0.00599145	0
28999	0.0087843	-0.00601244	0
29029	0.00874612	-0.00599781	0
29059	0.00874612	-0.005966	0
29089	0.00868884	-0.00597872	0
29119	0.00876521	-0.00596282	0
29149	0.00876521	-0.00591828	0
29179	0.00868884	-0.00597554	0
29209	0.00872702	-0.00593482	0
29239	0.0087843	-0.00596663	0
29269	0.00861248	-0.005966	0
29299	0.00866975	-0.00596663	0
29329	0.00865066	-0.00595073	0
29359	0.00874612	-0.00596345	0
29389	0.00876521	-0.00595264	0
29419	0.00870793	-0.00592146	0
29449	0.00874612	-0.00596536	0
29479	0.00868884	-0.00592019	0
29509	0.00870793	-0.00589283	0
29539	0.00874612	-0.00590174	0
29569	0.00868884	-0.00593927	0
29599	0.00868884	-0.0058661	0
29629	0.00876521	-0.00588837	0
29659	0.00876521	-0.00590619	0
29689	0.00870793	-0.00589728	0
29719	0.00874612	-0.00590492	0
29749	0.00863157	-0.00593737	0
29779	0.00874612	-0.00591255	0
29809	0.00866975	-0.0058941	0
29839	0.0087843	-0.00591382	0
29869	0.0087843	-0.00589792	0
29899	0.00870793	-0.00590555	0
29929	0.0087843	-0.00590746	0
29959	0.00876521	-0.00586356	0
29989	0.00874612	-0.00585911	0
30019	0.00866975	-0.00588392	0
30049	0.00865066	-0.00587119	0
30079	0.00859339	-0.00584575	0
30109	0.0087843	-0.00584129	0
30139	0.00865066	-0.00587056	0
30169	0.00870793	-0.00584829	0
30199	0.00859339	-0.00584702	0
30229	0.00874612	-0.00583556	0
30259	0.00872702	-0.00583556	0
30289	0.0087843	-0.00579739	0
30319	0.00868884	-0.00581266	0
30349	0.00868884	-0.00579739	0
30379	0.00868884	-0.00579866	0
30409	0.00870793	-0.00580757	0
30439	0.00874612	-0.00579548	0
30469	0.00872702	-0.00578848	0
30499	0.0085743	-0.00581584	0
30529	0.0087843	-0.00578403	0
30559	0.00872702	-0.00576749	0
30589	0.00872702	-0.00579166	0
30619	0.00868884	-0.00581266	0
30649	0.00884157	-0.00574013	0
30679	0.00868884	-0.00576112	0
30709	0.00876521	-0.00572613	0
30739	0.00874612	-0.00573504	0
30769	0.00870793	-0.00574331	0
30799	0.00870793	-0.00577258	0
30829	0.00866975	-0.0057045	0
30859	0.00868884	-0.00575222	0
30889	0.00870793	-0.00574458	0
30919	0.00874612	-0.00573822	0
30949	0.00882248	-0.00572931	0
30979	0.00868884	-0.00571786	0
31009	0.0087843	-0.00569432	0
31039	0.0087843	-0.00568795	0
31069	0.00866975	-0.00571659	0
31099	0.00872702	-0.00572931	0
31129	0.00870793	-0.00568732	0
31159	0.00874612	-0.00571913	0
31189	0.00866975	-0.00569177	0
31219	0.00880339	-0.00571977	0
31249	0.00866975	-0.00565869	0
31279	0.00865066	-0.00570577	0
31309	0.00866975	-0.00567459	0
31339	0.00868884	-0.00564787	0
31369	0.00866975	-0.00567523	0
31399	0.00868884	-0.00569113	0
31429	0.0087843	-0.00565296	0
31459	0.0087843	-0.00564024	0
31489	0.00870793	-0.00565169	0
31519	0.00863157	-0.00561924	0
31549	0.00865066	-0.00562687	0
31579	0.00863157	-0.00565614	0
31609	0.00884157	-0.00561224	0
31639	0.00880339	-0.00561033	0
31669	0.00874612	-0.00563515	0
31699	0.00866975	-0.00561797	0
31729	0.00865066	-0.00564087	0
31759	0.00870793	-0.00562178	0
31789	0.00868884	-0.00557534	0
31819	0.00866975	-0.00556897	0
31849	0.00870793	-0.00558806	0
31879	0.00868884	-0.00558043	0
31909	0.0087843	-0.00560651	0
31939	0.00872702	-0.00556198	0
31969	0.00872702	-0.00559951	0
31999	0.00859339	-0.00555816	0
32029	0.00868884	-0.00559061	0
32059	0.00870793	-0.0055747	0
32089	0.00868884	-0.00556452	0
32119	0.0087843	-0.00556388	0
32149	0.00861248	-0.00553525	0
32179	0.00872702	-0.00555816	0
32209	0.00872702	-0.0055168	0
32239	0.00865066	-0.00560588	0
32269	0.00865066	-0.00552062	0
32299	0.00870793	-0.00549199	0
32329	0.00876521	-0.00549771	0
32359	0.00882248	-0.00553207	0
32389	0.00868884	-0.00556261	0
32419	0.00876521	-0.00551807	0
32449	0.00868884	-0.00547926	0
32479	0.00859339	-0.00554289	0
32509	0.00868884	-0.00551171	0
32539	0.00863157	-0.00548499	0
32569	0.00868884	-0.00550599	0
32599	0.00870793	-0.00551744	0
32629	0.00868884	-0.00545254	0
32659	0.00866975	-0.00548944	0
32689	0.00874612	-0.00548881	0
32719	0.00870793	-0.00546781	0
32749	0.00870793	-0.00548881	0
32779	0.00882248	-0.00544491	0
32809	0.00868884	-0.00545636	0
32839	0.0087843	-0.00546654	0
32869	0.00865066	-0.00547354	0
32899	0.00882248	-0.00546463	0
32929	0.00868884	-0.00544172	0
32959	0.00870793	-0.00542645	0
32989	0.00863157	-0.00547036	0
33019	0.00868884	-0.00548944	0
33049	0.00866975	-0.0054589	0
33079	0.00872702	-0.0054589	0
33109	0.00868884	-0.00542645	0
33139	0.00876521	-0.00544936	0
33169	0.00874612	-0.0053781	0
33199	0.00866975	-0.00545063	0
33229	0.00859339	-0.00542455	0
33259	0.00872702	-0.005436	0
33289	0.00866975	-0.00544172	0
33319	0.00866975	-0.00541755	0
33349	0.00866975	-0.00543218	0
33379	0.00863157	-0.00542709	0
33409	0.00872702	-0.00541182	0
33439	0.00870793	-0.00543345	0
33469	0.00874612	-0.00537937	0
33499	0.00863157	-0.00540291	0
33529	0.00874612	-0.00539146	0
33559	0.00868884	-0.00539719	0
33589	0.00863157	-0.00539528	0
33619	0.00865066	-0.00535965	0
33649	0.00868884	-0.00538064	0
33679	0.00880339	-0.00537492	0
33709	0.00868884	-0.00539273	0
33739	0.00874612	-0.00533738	0
33769	0.00876521	-0.00535647	0
33799	0.00874612	-0.00534629	0
33829	0.00874612	-0.00530175	0
33859	0.00866975	-0.00535774	0
33889	0.00863157	-0.00534247	0
33919	0.00872702	-0.00531384	0
33949	0.00872702	-0.00535647	0
33979	0.00874612	-0.00534056	0
34009	0.0087843	-0.00534883	0
34039	0.00872702	-0.00529602	0
34069	0.0087843	-0.00533483	0
34099	0.00870793	-0.00532911	0
34129	0.00876521	-0.0053062	0
34159	0.00874612	-0.00527375	0
34189	0.00872702	-0.00529157	0
34219	0.00866975	-0.00532274	0
34249	0.00865066	-0.00532656	0
34279	0.00863157	-0.00526739	0
34309	0.00861248	-0.00530811	0
34339	0.00870793	-0.00527693	0
34369	0.00870793	-0.00526357	0
34399	0.00876521	-0.00530875	0
34429	0.00866975	-0.00527884	0
34459	0.00868884	-0.00525403	0
34489	0.00870793	-0.0052833	0
34519	0.00874612	-0.00524639	0
34549	0.00872702	-0.00527248	0
34579	0.00880339	-0.00529284	0
34609	0.00872702	-0.00526866	0
34639	0.00874612	-0.00530493	0
34669	0.00868884	-0.00523558	0
34699	0.00868884	-0.00524067	0
34729	0.00882248	-0.00524385	0
34759	0.00865066	-0.00521522	0
34789	0.00874612	-0.00520822	0
34819	0.0087843	-0.00524194	0
34849	0.00874612	-0.00524767	0
34879	0.00866975	-0.00525785	0
34909	0.00876521	-0.00524767	0
34939	0.00865066	-0.00519168	0
34969	0.00876521	-0.00520186	0
34999	0.00868884	-0.00520567	0
35029	0.00865066	-0.00525021	0
35059	0.00870793	-0.00522858	0
35089	0.00868884	-0.00522285	0
35119	0.00866975	-0.00518404	0
35149	0.00874612	-0.00520822	0
35179	0.00868884	-0.00520122	0
35209	0.00865066	-0.00521267	0
35239	0.00866975	-0.00517768	0
35269	0.00868884	-0.00518977	0
35299	0.0087843	-0.00515923	0
35329	0.00874612	-0.00518468	0
35359	0.00865066	-0.00518086	0
35389	0.00870793	-0.00515923	0
35419	0.00868884	-0.00513759	0
35449	0.00866975	-0.00514714	0
35479	0.00876521	-0.0051306	0
35509	0.00865066	-0.00513378	0
35539	0.00866975	-0.0052044	0
35569	0.00872702	-0.00518849	0
35599	0.00882248	-0.00515541	0
35629	0.00872702	-0.00512741	0
35659	0.00872702	-0.00514268	0
35689	0.00866975	-0.00517768	0
35719	0.00866975	-0.0051325	0
35749	0.00868884	-0.00509687	0
35779	0.00874612	-0.00515032	0
35809	0.00880339	-0.00514587	0
35839	0.00876521	-0.0051395	0
35869	0.00859339	-0.00512296	0
35899	0.00872702	-0.00512932	0
35929	0.00872702	-0.00511087	0
35959	0.0087843	-0.00509942	0
35989	0.00868884	-0.00513696	0
36019	0.00874612	-0.00510006	0
36049	0.00868884	-0.00508733	0
36079	0.00865066	-0.00509624	0
36109	0.00874612	-0.00509433	0
36139	0.00872702	-0.0051306	0
36169	0.00865066	-0.00510196	0
36199	0.0087843	-0.00514014	0
36229	0.00872702	-0.00508542	0
36259	0.0087843	-0.00515668	0
36289	0.00872702	-0.00515477	0
36319	0.00874612	-0.00513696	0
36349	0.00868884	-0.00524194	0
36379	0.00863157	-0.00519549	0
36409	0.00872702	-0.00521713	0
36439	0.00880339	-0.00518022	0
36469	0.00866975	-0.00519168	0
36499	0.00863157	-0.00512805	0
36529	0.00865066	-0.00515668	0
36559	0.00868884	-0.00515032	0
36589	0.00870793	-0.00512232	0
36619	0.0087843	-0.00509624	0
36649	0.00872702	-0.00507079	0
36679	0.0087843	-0.00507906	0
36709	0.00866975	-0.00508351	0
36739	0.00865066	-0.00507524	0
36769	0.00861248	-0.00504343	0
36799	0.00868884	-0.00504725	0
36829	0.00872702	-0.00502307	0
36859	0.00865066	-0.0050447	0
36889	0.00868884	-0.00501162	0
36919	0.00874612	-0.0049868	0
36949	0.00868884	-0.00498553	0
36979	0.00870793	-0.00501034	0
37009	0.00866975	-0.00496835	0
37039	0.00874612	-0.0050237	0
37069	0.00868884	-0.00501162	0
37099	0.00868884	-0.0050148	0
37129	0.00870793	-0.00500462	0
37159	0.00876521	-0.0049569	0
37189	0.00868884	-0.00501352	0
37219	0.0087843	-0.00496644	0
37249	0.00863157	-0.00501034	0
37279	0.00866975	-0.00498935	0
37309	0.00868884	-0.00499507	0
37339	0.00870793	-0.00496899	0
37369	0.00872702	-0.00495817	0
37399	0.00868884	-0.00500653	0
37429	0.00872702	-0.00493208	0
37459	0.00876521	-0.00496199	0
37489	0.00876521	-0.00495499	0
37519	0.00870793	-0.00495054	0
37549	0.00868884	-0.00495117	0
37579	0.00866975	-0.00496199	0
37609	0.00874612	-0.00497026	0
37639	0.00874612	-0.00491427	0
37669	0.00876521	-0.00494036	0
37699	0.00876521	-0.0049728	0
37729	0.00868884	-0.00491681	0
37759	0.00870793	-0.00489455	0
37789	0.00866975	-0.00491554	0
37819	0.00863157	-0.00492254	0
37849	0.00861248	-0.00493336	0
37879	0.00872702	-0.00490854	0
37909	0.00865066	-0.00490345	0
37939	0.00866975	-0.00490982	0
37969	0.00866975	-0.00493081	0
37999	0.00863157	-0.00486846	0
38029	0.00870793	-0.00489582	0
38059	0.00865066	-0.00489836	0
38089	0.00866975	-0.00488691	0
38119	0.00872702	-0.00487164	0
38149	0.00865066	-0.00489009	0
38179	0.00870793	-0.00490663	0
38209	0.00868884	-0.00486082	0
38239	0.00870793	-0.00487355	0
38269	0.00863157	-0.00486719	0
38299	0.00872702	-0.00483983	0
38329	0.00872702	-0.00485128	0
38359	0.0087843	-0.00485637	0
38389	0.00870793	-0.00487291	0
38419	0.00872702	-0.00485064	0
38449	0.00876521	-0.00484555	0
38479	0.00866975	-0.00486273	0
38509	0.00861248	-0.00480865	0
38539	0.00876521	-0.00483537	0
38569	0.00861248	-0.00479593	0
38599	0.00870793	-0.00480674	0
38629	0.00865066	-0.00483219	0
38659	0.00863157	-0.00482201	0
38689	0.00866975	-0.00481501	0
38719	0.00874612	-0.00480547	0
38749	0.00868884	-0.0048112	0
38779	0.00870793	-0.00485064	0
38809	0.00872702	-0.00480165	0
38839	0.00863157	-0.00480801	0
38869	0.00861248	-0.00479211	0
38899	0.00876521	-0.00480611	0
38929	0.00874612	-0.00478829	0
38959	0.00872702	-0.00478193	0
38989	0.00868884	-0.00478511	0
39019	0.00859339	-0.00481438	0
39049	0.00880339	-0.00477493	0
39079	0.00872702	-0.00480165	0
39109	0.00876521	-0.00479084	0
39139	0.00868884	-0.00475775	0
39169	0.00866975	-0.00475266	0
39199	0.00876521	-0.00477302	0
39229	0.00872702	-0.00478447	0
39259	0.00865066	-0.00475457	0
39289	0.00863157	-0.00473739	0
39319	0.00870793	-0.00479402	0
39349	0.00866975	-0.00480038	0
39379	0.00870793	-0.00475012	0
39409	0.0087843	-0.00473294	0
39439	0.00874612	-0.00473485	0
39469	0.00876521	-0.00469667	0
39499	0.00876521	-0.00473485	0
39529	0.00872702	-0.00474184	0
39559	0.00863157	-0.00470558	0
39589	0.00874612	-0.00474503	0
39619	0.00863157	-0.0047113	0
39649	0.00872702	-0.00472657	0
39679	0.00874612	-0.0047603	0
39709	0.00870793	-0.00468649	0
39739	0.00863157	-0.00476666	0
39769	0.00872702	-0.0047692	0
39799	0.00876521	-0.00473166	0
39829	0.00874612	-0.00475075	0
39859	0.00872702	-0.00474884	0
39889	0.00863157	-0.00472467	0
39919	0.00863157	-0.00472212	0
39949	0.00874612	-0.00472403	0
39979	0.00870793	-0.00473548	0
40009	0.00866975	-0.00473803	0
40039	0.00868884	-0.00466231	0
40069	0.00865066	-0.00471067	0
40099	0.00876521	-0.00471576	0
40129	0.0085743	-0.00469158	0
40159	0.00872702	-0.00469667	0
40189	0.00880339	-0.0046814	0
40200.3	0.00882248	-0.0064381	0