File: EXPERIMENTAL/Data/Battery-cycling/JP-measurements/T-cell/2024-04-23_JP-A3-02_T-cell_Li-Cu_1-mm-PP-spacer_75muL-4MLiFSI-DME_inside-glovebox_added-OCV-0.1s_04_CP_C10.txt
time/s	Ewe/V	I/mA	error
650.094	-0.137676	-1.94336	0
650.095	-0.18394	-1.95971	0
650.095	-0.199574	-1.95975	0
650.095	-0.210361	-1.95981	0
650.095	-0.219486	-1.95982	0
650.095	-0.227696	-1.9598	0
650.096	-0.235294	-1.95977	0
650.096	-0.242319	-1.95979	0
650.096	-0.24881	-1.9598	0
650.096	-0.254938	-1.95983	0
650.096	-0.260589	-1.95984	0
650.097	-0.266068	-1.95981	0
650.097	-0.27128	-1.95979	0
650.097	-0.276359	-1.95981	0
650.097	-0.281112	-1.95979	0
650.097	-0.285579	-1.95985	0
650.098	-0.290142	-1.9598	0
650.098	-0.2944	-1.95989	0
650.098	-0.298447	-1.95986	0
650.098	-0.302399	-1.95981	0
650.098	-0.306045	-1.9599	0
650.099	-0.309806	-1.95983	0
650.099	-0.313376	-1.95985	0
650.099	-0.316812	-1.95983	0
650.099	-0.320077	-1.95983	0
650.099	-0.32317	-1.9599	0
650.1	-0.326396	-1.95985	0
650.1	-0.329412	-1.95984	0
650.1	-0.332429	-1.95983	0
650.1	-0.335331	-1.95988	0
650.1	-0.338137	-1.95986	0
650.101	-0.340791	-1.95984	0
650.101	-0.343387	-1.95985	0
650.101	-0.346022	-1.95987	0
650.101	-0.34858	-1.95988	0
650.101	-0.351062	-1.95986	0
650.102	-0.353353	-1.95989	0
650.102	-0.355529	-1.95986	0
650.102	-0.357934	-1.95988	0
650.102	-0.360015	-1.95987	0
650.102	-0.362134	-1.95985	0
650.103	-0.364368	-1.95988	0
650.103	-0.366373	-1.95986	0
650.103	-0.368492	-1.95985	0
650.103	-0.370382	-1.95993	0
650.103	-0.372329	-1.95985	0
650.104	-0.374047	-1.95991	0
650.104	-0.375785	-1.9599	0
650.104	-0.377732	-1.95992	0
650.104	-0.379412	-1.95988	0
650.104	-0.38113	-1.95987	0
650.105	-0.382867	-1.9599	0
650.105	-0.384356	-1.95988	0
650.105	-0.385865	-1.95996	0
650.105	-0.387564	-1.95992	0
650.105	-0.389148	-1.95988	0
650.106	-0.390504	-1.95988	0
650.106	-0.391916	-1.95988	0
650.106	-0.393253	-1.95988	0
650.106	-0.394704	-1.95992	0
650.106	-0.396059	-1.95989	0
650.107	-0.397472	-1.95992	0
650.107	-0.398598	-1.9599	0
650.107	-0.399992	-1.95993	0
650.107	-0.40108	-1.95984	0
650.107	-0.402436	-1.95986	0
650.108	-0.403524	-1.95985	0
650.108	-0.404822	-1.95992	0
650.108	-0.405929	-1.95991	0
650.108	-0.40696	-1.95991	0
650.108	-0.408067	-1.95992	0
650.109	-0.409308	-1.9599	0
650.109	-0.411389	-1.9599	0
650.109	-0.413337	-1.95995	0
650.11	-0.415131	-1.95995	0
650.11	-0.416162	-1.95995	0
650.11	-0.417823	-1.95995	0
650.111	-0.419656	-1.95989	0
650.111	-0.421317	-1.95985	0
650.112	-0.42292	-1.95993	0
650.112	-0.424543	-1.95993	0
650.112	-0.425937	-1.9599	0
650.113	-0.427216	-1.96	0
650.113	-0.428609	-1.95994	0
650.114	-0.429946	-1.95993	0
650.114	-0.431187	-1.9599	0
650.114	-0.43237	-1.95998	0
650.115	-0.433478	-1.95993	0
650.115	-0.434528	-1.95986	0
650.116	-0.435559	-1.95995	0
650.116	-0.437028	-1.95992	0
650.117	-0.438136	-1.95996	0
650.117	-0.439472	-1.95993	0
650.118	-0.440503	-1.95993	0
650.119	-0.441916	-1.95991	0
650.12	-0.443157	-1.95994	0
650.122	-0.444169	-1.95997	0
650.124	-0.44308	-1.95995	0
650.125	-0.441973	-1.95991	0
650.125	-0.440942	-1.9599	0
650.126	-0.43972	-1.95988	0
650.126	-0.438651	-1.95995	0
650.127	-0.437601	-1.9599	0
650.127	-0.436475	-1.95989	0
650.127	-0.435368	-1.95993	0
650.128	-0.433955	-1.95991	0
650.128	-0.432619	-1.95995	0
650.129	-0.431206	-1.95994	0
650.129	-0.42985	-1.96	0
650.129	-0.428399	-1.95997	0
650.13	-0.427044	-1.95986	0
650.13	-0.425364	-1.95996	0
650.131	-0.423951	-1.95996	0
650.131	-0.422462	-1.9599	0
650.131	-0.420916	-1.95988	0
650.132	-0.419388	-1.95994	0
650.132	-0.417842	-1.95993	0
650.133	-0.416315	-1.96	0
650.133	-0.414845	-1.95999	0
650.133	-0.41347	-1.95994	0
650.134	-0.412096	-1.95997	0
650.134	-0.410664	-1.95988	0
650.135	-0.409194	-1.96002	0
650.135	-0.407762	-1.95991	0
650.135	-0.406407	-1.95996	0
650.136	-0.405127	-1.95993	0
650.136	-0.403867	-1.95989	0
650.137	-0.402493	-1.95995	0
650.137	-0.401233	-1.95993	0
650.137	-0.400049	-1.95995	0
650.138	-0.398808	-1.95993	0
650.138	-0.397625	-1.95997	0
650.139	-0.396613	-1.95986	0
650.139	-0.395563	-1.95993	0
650.139	-0.39436	-1.95996	0
650.14	-0.393253	-1.95993	0
650.14	-0.392184	-1.95993	0
650.141	-0.390733	-1.95992	0
650.141	-0.389339	-1.95993	0
650.142	-0.387926	-1.95997	0
650.142	-0.386896	-1.95987	0
650.143	-0.385731	-1.95995	0
650.144	-0.384433	-1.95992	0
650.144	-0.383096	-1.95993	0
650.145	-0.381951	-1.95988	0
650.145	-0.380844	-1.96001	0
650.146	-0.379698	-1.95992	0
650.147	-0.378667	-1.95993	0
650.147	-0.377655	-1.95998	0
650.148	-0.376338	-1.95988	0
650.149	-0.375193	-1.95997	0
650.15	-0.374066	-1.95989	0
650.15	-0.372864	-1.95988	0
650.151	-0.371795	-1.95995	0
650.152	-0.370706	-1.95993	0
650.153	-0.369523	-1.95992	0
650.154	-0.36832	-1.95995	0
650.155	-0.367155	-1.95997	0
650.156	-0.366086	-1.95995	0
650.157	-0.365074	-1.95992	0
650.159	-0.363948	-1.95988	0
650.16	-0.362898	-1.95999	0
650.161	-0.361753	-1.95997	0
650.163	-0.360588	-1.9599	0
650.165	-0.359519	-1.95995	0
650.167	-0.358374	-1.95992	0
650.169	-0.357247	-1.95988	0
650.171	-0.356235	-1.9599	0
650.174	-0.355166	-1.95994	0
650.177	-0.354097	-1.95993	0
650.181	-0.353047	-1.95994	0
650.186	-0.351997	-1.95997	0
650.192	-0.350966	-1.95995	0
650.2	-0.349935	-1.95994	0
650.221	-0.348885	-1.95991	0
650.291	-0.349897	-1.95993	0
650.347	-0.350928	-1.95994	0
650.74	-0.349916	-1.95993	0
650.83	-0.348904	-1.95997	0
650.916	-0.347873	-1.95993	0
650.996	-0.346862	-1.9599	0
651.076	-0.345793	-1.96	0
651.154	-0.344704	-1.95995	0
651.244	-0.343673	-1.95991	0
651.321	-0.342643	-1.95992	0
651.404	-0.341631	-1.9599	0
651.487	-0.340619	-1.95992	0
651.575	-0.339607	-1.95995	0
651.654	-0.338595	-1.95992	0
651.742	-0.337583	-1.95994	0
651.841	-0.336533	-1.9599	0
651.941	-0.335464	-1.95999	0
652.041	-0.334376	-1.95995	0
652.154	-0.333345	-1.95993	0
652.263	-0.332314	-1.9599	0
652.377	-0.331302	-1.95996	0
652.494	-0.330291	-1.95991	0
652.622	-0.329279	-1.95991	0
652.741	-0.328267	-1.95997	0
652.884	-0.327236	-1.9599	0
653.034	-0.326224	-1.95994	0
653.181	-0.325212	-1.95992	0
653.346	-0.324182	-1.95999	0
653.516	-0.323151	-1.9599	0
653.704	-0.322139	-1.95997	0
653.898	-0.321127	-1.95992	0
654.081	-0.320115	-1.95992	0
654.324	-0.319084	-1.95997	0
654.568	-0.318072	-1.95996	0
654.823	-0.317061	-1.95993	0
655.119	-0.31603	-1.95996	0
655.426	-0.314999	-1.95993	0
655.8	-0.31393	-1.95993	0
656.209	-0.312899	-1.95989	0
656.683	-0.311868	-1.95993	0
657.204	-0.310856	-1.95988	0
657.891	-0.309844	-1.95991	0
658.727	-0.308813	-1.95995	0
659.882	-0.307782	-1.95995	0
662.59	-0.306771	-1.95996	0
667.48	-0.307801	-1.95994	0
669.96	-0.308813	-1.95993	0
672.01	-0.309863	-1.95998	0
673.866	-0.310894	-1.95991	0
675.715	-0.311906	-1.95988	0
677.299	-0.312918	-1.96001	0
678.73	-0.313949	-1.95993	0
680.235	-0.314961	-1.95995	0
681.886	-0.315972	-1.95988	0
683.348	-0.316984	-1.95993	0
684.794	-0.318034	-1.96	0
686.296	-0.319046	-1.95994	0
687.753	-0.320058	-1.95997	0
689.107	-0.32107	-1.95994	0
690.572	-0.322082	-1.95993	0
691.952	-0.323093	-1.95993	0
693.434	-0.324105	-1.96	0
694.846	-0.325136	-1.95996	0
696.252	-0.326148	-1.96	0
697.671	-0.32716	-1.95999	0
699.097	-0.32821	-1.95991	0
700.584	-0.329222	-1.95997	0
702.044	-0.330233	-1.95994	0
703.491	-0.331264	-1.95996	0
704.925	-0.332276	-1.95991	0
706.406	-0.333288	-1.9599	0
707.864	-0.334338	-1.95994	0
709.397	-0.33535	-1.9599	0
710.875	-0.336362	-1.95993	0
712.315	-0.337412	-1.95998	0
713.87	-0.338442	-1.95995	0
715.401	-0.339454	-1.95997	0
716.939	-0.340466	-1.95996	0
718.466	-0.341478	-1.95992	0
720.017	-0.342528	-1.95997	0
721.61	-0.34354	-1.95996	0
723.197	-0.344552	-1.95992	0
724.722	-0.345563	-1.96	0
726.312	-0.346575	-1.95994	0
727.891	-0.347606	-1.96	0
729.507	-0.348618	-1.9599	0
731.121	-0.34963	-1.95995	0
732.77	-0.350661	-1.95992	0
734.441	-0.351711	-1.95992	0
736.116	-0.352761	-1.95995	0
737.81	-0.353773	-1.95993	0
739.513	-0.354784	-1.95997	0
741.103	-0.355796	-1.95997	0
742.826	-0.356808	-1.95991	0
744.51	-0.35782	-1.95992	0
746.203	-0.358851	-1.95991	0
748.018	-0.359863	-1.95991	0
749.717	-0.360874	-1.95998	0
751.39	-0.361886	-1.95987	0
753.054	-0.362917	-1.95992	0
754.777	-0.363929	-1.95998	0
756.452	-0.36496	-1.95993	0
758.14	-0.365972	-1.95992	0
759.989	-0.366984	-1.95989	0
761.602	-0.367995	-1.96001	0
763.394	-0.369007	-1.95998	0
765.031	-0.370019	-1.95991	0
766.789	-0.371031	-1.95999	0
768.422	-0.372062	-1.95993	0
770.207	-0.373093	-1.95994	0
771.976	-0.374143	-1.95992	0
773.704	-0.375155	-1.95997	0
775.332	-0.376166	-1.95994	0
777.077	-0.377197	-1.95993	0
778.732	-0.378209	-1.95996	0
780.484	-0.37924	-1.95994	0
782.024	-0.380252	-1.95994	0
783.734	-0.381264	-1.95995	0
785.41	-0.382275	-1.95999	0
787.04	-0.383325	-1.95998	0
788.678	-0.384356	-1.95998	0
790.31	-0.385406	-1.95993	0
791.939	-0.386437	-1.95999	0
793.589	-0.387468	-1.95996	0
795.133	-0.38848	-1.95995	0
796.764	-0.389511	-1.95993	0
798.312	-0.390523	-1.95991	0
799.858	-0.391535	-1.95997	0
801.502	-0.392546	-1.95999	0
802.975	-0.393558	-1.95991	0
804.507	-0.39457	-1.95997	0
806.023	-0.395582	-1.95999	0
807.484	-0.396594	-1.95992	0
808.979	-0.397606	-1.95993	0
810.469	-0.398617	-1.95992	0
811.875	-0.399629	-1.9599	0
813.372	-0.400698	-1.96	0
814.869	-0.40171	-1.95996	0
816.305	-0.402722	-1.96001	0
817.757	-0.403772	-1.95999	0
819.167	-0.404784	-1.95999	0
820.546	-0.405796	-1.95999	0
821.995	-0.406827	-1.95995	0
823.343	-0.407877	-1.95994	0
824.689	-0.408888	-1.95993	0
826.153	-0.409919	-1.95996	0
827.463	-0.410931	-1.96001	0
828.763	-0.411943	-1.95995	0
829.805	-0.412955	-1.96003	0
830.094	-0.413069	-1.95994	0