File: EXPERIMENTAL/Data/Battery-cycling/JP-measurements/T-cell/2024-04-23_JP-A2-02_T-cell_Li-Cu_1-mm-PP-spacer_75muL-4MLiFSI-DME_inside-glovebox_added-OCV-0.1s_04_CP_C10.txt
time/s	Ewe/V	I/mA	error
40200.5	-0.0202131	-0.19452	0
40200.5	-0.0477147	-0.195952	0
40200.5	-0.0631501	-0.195965	0
40200.5	-0.0715501	-0.195974	0
40200.5	-0.0772393	-0.195975	0
40200.5	-0.0812102	-0.195974	0
40200.5	-0.0840929	-0.195982	0
40200.5	-0.0864411	-0.195979	0
40200.5	-0.0883121	-0.195976	0
40200.5	-0.0899539	-0.195979	0
40200.5	-0.0913093	-0.195974	0
40200.5	-0.0926457	-0.195984	0
40200.5	-0.0936575	-0.195979	0
40200.5	-0.0956621	-0.195977	0
40200.5	-0.0973803	-0.195985	0
40200.5	-0.0990221	-0.195984	0
40200.5	-0.100778	-0.195979	0
40200.5	-0.102191	-0.195981	0
40200.5	-0.103623	-0.195986	0
40200.5	-0.104769	-0.195984	0
40200.5	-0.106124	-0.195984	0
40200.5	-0.107346	-0.195984	0
40200.5	-0.108587	-0.195987	0
40200.5	-0.109599	-0.195987	0
40200.5	-0.110744	-0.195981	0
40200.5	-0.111909	-0.195988	0
40200.5	-0.113016	-0.195984	0
40200.5	-0.114562	-0.195986	0
40200.5	-0.115612	-0.195981	0
40200.5	-0.116643	-0.195984	0
40200.5	-0.118018	-0.195981	0
40200.5	-0.119469	-0.195986	0
40200.5	-0.12071	-0.195982	0
40200.5	-0.122103	-0.195981	0
40200.5	-0.12342	-0.195986	0
40200.5	-0.124757	-0.195987	0
40200.5	-0.126017	-0.195986	0
40200.5	-0.12722	-0.195983	0
40200.5	-0.128365	-0.195981	0
40200.5	-0.129587	-0.195982	0
40200.5	-0.130637	-0.195987	0
40200.5	-0.131801	-0.195974	0
40200.5	-0.132947	-0.195981	0
40200.5	-0.134417	-0.195982	0
40200.5	-0.135467	-0.195985	0
40200.5	-0.136555	-0.195984	0
40200.5	-0.137911	-0.195982	0
40200.5	-0.138941	-0.195979	0
40200.5	-0.140221	-0.195992	0
40200.5	-0.141309	-0.195983	0
40200.5	-0.142416	-0.195987	0
40200.5	-0.143447	-0.195988	0
40200.5	-0.144726	-0.195978	0
40200.5	-0.146024	-0.195982	0
40200.5	-0.147131	-0.195982	0
40200.5	-0.148315	-0.195986	0
40200.5	-0.149594	-0.195989	0
40200.5	-0.150816	-0.195985	0
40200.5	-0.152076	-0.195984	0
40200.5	-0.153202	-0.195982	0
40200.5	-0.154558	-0.195991	0
40200.5	-0.155646	-0.195981	0
40200.5	-0.156772	-0.195985	0
40200.5	-0.157994	-0.195983	0
40200.5	-0.159292	-0.195984	0
40200.5	-0.16061	-0.195982	0
40200.5	-0.161793	-0.195985	0
40200.5	-0.162901	-0.195984	0
40200.5	-0.163932	-0.195984	0
40200.5	-0.164982	-0.195981	0
40200.5	-0.166032	-0.195983	0
40200.5	-0.167062	-0.19598	0
40200.5	-0.168151	-0.195981	0
40200.5	-0.169315	-0.195986	0
40200.5	-0.170346	-0.195984	0
40200.5	-0.171492	-0.195988	0
40200.5	-0.172637	-0.195982	0
40200.5	-0.173859	-0.195981	0
40200.5	-0.175004	-0.195988	0
40200.5	-0.176264	-0.195985	0
40200.5	-0.177333	-0.195988	0
40200.5	-0.178364	-0.195983	0
40200.5	-0.179376	-0.195986	0
40200.5	-0.180636	-0.195985	0
40200.5	-0.181686	-0.195985	0
40200.5	-0.182755	-0.195988	0
40200.5	-0.183863	-0.195981	0
40200.5	-0.184951	-0.195983	0
40200.5	-0.18602	-0.195981	0
40200.5	-0.187108	-0.195986	0
40200.6	-0.188177	-0.195978	0
40200.6	-0.189284	-0.195983	0
40200.6	-0.190487	-0.195988	0
40200.6	-0.191671	-0.195977	0
40200.6	-0.19274	-0.195983	0
40200.6	-0.194095	-0.195985	0
40200.6	-0.195241	-0.195986	0
40200.6	-0.196367	-0.195993	0
40200.6	-0.197398	-0.195984	0
40200.6	-0.198582	-0.195987	0
40200.6	-0.199594	-0.195981	0
40200.6	-0.200605	-0.195979	0
40200.6	-0.201636	-0.195988	0
40200.6	-0.202801	-0.195981	0
40200.6	-0.20387	-0.195984	0
40200.6	-0.204958	-0.195981	0
40200.6	-0.206008	-0.195979	0
40200.6	-0.207058	-0.195986	0
40200.6	-0.208223	-0.195984	0
40200.6	-0.209368	-0.19599	0
40200.6	-0.210399	-0.195986	0
40200.6	-0.21143	-0.195984	0
40200.6	-0.212575	-0.195983	0
40200.6	-0.213606	-0.195984	0
40200.6	-0.214733	-0.195983	0
40200.6	-0.215955	-0.19599	0
40200.6	-0.217081	-0.195986	0
40200.6	-0.218169	-0.195985	0
40200.6	-0.219181	-0.195986	0
40200.6	-0.220231	-0.195986	0
40200.6	-0.2213	-0.195983	0
40200.6	-0.222388	-0.195984	0
40200.6	-0.223457	-0.195981	0
40200.6	-0.224488	-0.195984	0
40200.6	-0.225596	-0.195985	0
40200.6	-0.226703	-0.195987	0
40200.6	-0.227753	-0.195984	0
40200.6	-0.228822	-0.195982	0
40200.6	-0.229834	-0.195988	0
40200.6	-0.230865	-0.195979	0
40200.6	-0.231934	-0.195991	0
40200.6	-0.233022	-0.195984	0
40200.6	-0.234053	-0.195986	0
40200.6	-0.235103	-0.195979	0
40200.6	-0.236115	-0.195983	0
40200.6	-0.237127	-0.195988	0
40200.6	-0.238272	-0.195984	0
40200.6	-0.23936	-0.195984	0
40200.6	-0.240429	-0.195984	0
40200.6	-0.24146	-0.195987	0
40200.6	-0.24251	-0.195986	0
40200.6	-0.243598	-0.195991	0
40200.6	-0.244667	-0.195986	0
40200.7	-0.245679	-0.195983	0
40200.7	-0.246825	-0.195988	0
40200.7	-0.248085	-0.195985	0
40200.7	-0.249154	-0.195985	0
40200.7	-0.250223	-0.195988	0
40200.7	-0.251311	-0.195987	0
40200.7	-0.252361	-0.195981	0
40200.7	-0.253392	-0.195983	0
40200.7	-0.254423	-0.195981	0
40200.7	-0.255492	-0.195984	0
40200.7	-0.256542	-0.195984	0
40200.7	-0.257592	-0.19598	0
40200.7	-0.258604	-0.195988	0
40200.7	-0.25973	-0.195984	0
40200.7	-0.260761	-0.195987	0
40200.7	-0.261888	-0.195983	0
40200.7	-0.263014	-0.195984	0
40200.7	-0.264083	-0.195983	0
40200.7	-0.265095	-0.195981	0
40200.7	-0.266126	-0.195988	0
40200.7	-0.267157	-0.195984	0
40200.7	-0.268226	-0.195986	0
40200.7	-0.269238	-0.195984	0
40200.8	-0.270249	-0.195981	0
40200.8	-0.269161	-0.19598	0
40200.8	-0.26813	-0.195988	0
40200.8	-0.266985	-0.19599	0
40200.8	-0.265954	-0.195989	0
40200.8	-0.264942	-0.195986	0
40200.8	-0.263854	-0.195988	0
40200.8	-0.262842	-0.195984	0
40200.8	-0.261811	-0.195984	0
40200.9	-0.260761	-0.195983	0
40200.9	-0.259749	-0.195986	0
40200.9	-0.258718	-0.195984	0
40200.9	-0.257668	-0.195987	0
40200.9	-0.256618	-0.195984	0
40200.9	-0.255588	-0.195985	0
40200.9	-0.254518	-0.195991	0
40200.9	-0.253487	-0.19598	0
40200.9	-0.252285	-0.195987	0
40200.9	-0.251177	-0.195988	0
40200.9	-0.250166	-0.19598	0
40200.9	-0.249058	-0.195978	0
40200.9	-0.24797	-0.195985	0
40200.9	-0.246806	-0.19599	0
40200.9	-0.245794	-0.195988	0
40200.9	-0.244782	-0.19598	0
40200.9	-0.243751	-0.195988	0
40200.9	-0.242625	-0.195986	0
40200.9	-0.24146	-0.195989	0
40200.9	-0.240391	-0.195983	0
40200.9	-0.239341	-0.195986	0
40200.9	-0.238272	-0.195983	0
40200.9	-0.23726	-0.195988	0
40200.9	-0.236229	-0.195979	0
40200.9	-0.23516	-0.195991	0
40201	-0.233996	-0.195985	0
40201	-0.232965	-0.195987	0
40201	-0.231876	-0.195984	0
40201	-0.230826	-0.195986	0
40201	-0.229796	-0.195984	0
40201	-0.228688	-0.195988	0
40201	-0.227619	-0.195987	0
40201	-0.226588	-0.195983	0
40201	-0.225576	-0.195984	0
40201	-0.224546	-0.195988	0
40201	-0.223496	-0.195987	0
40201	-0.222407	-0.195985	0
40201	-0.221396	-0.195988	0
40201	-0.220346	-0.195984	0
40201	-0.219334	-0.195988	0
40201	-0.218284	-0.195981	0
40201	-0.217196	-0.195979	0
40201	-0.216126	-0.195985	0
40201.1	-0.215076	-0.195979	0
40201.1	-0.213931	-0.19598	0
40201.1	-0.2129	-0.195982	0
40201.1	-0.211812	-0.195986	0
40201.1	-0.210781	-0.195987	0
40201.1	-0.209769	-0.195986	0
40201.1	-0.208738	-0.195984	0
40201.1	-0.207631	-0.195987	0
40201.1	-0.206562	-0.195984	0
40201.1	-0.205474	-0.195983	0
40201.2	-0.204462	-0.195985	0
40201.2	-0.203431	-0.195984	0
40201.2	-0.2024	-0.195988	0
40201.2	-0.201388	-0.195983	0
40201.2	-0.200376	-0.195983	0
40201.2	-0.199364	-0.195988	0
40201.2	-0.198353	-0.195986	0
40201.2	-0.197303	-0.195982	0
40201.3	-0.196272	-0.195981	0
40201.3	-0.19526	-0.195983	0
40201.3	-0.194229	-0.195988	0
40201.3	-0.193217	-0.195982	0
40201.3	-0.192148	-0.195991	0
40201.4	-0.191136	-0.195981	0
40201.4	-0.190124	-0.195988	0
40201.4	-0.189113	-0.195988	0
40201.4	-0.188101	-0.19599	0
40201.4	-0.187032	-0.195981	0
40201.5	-0.18602	-0.195982	0
40201.5	-0.184913	-0.195986	0
40201.5	-0.183901	-0.195988	0
40201.5	-0.182889	-0.195984	0
40201.6	-0.181877	-0.19599	0
40201.6	-0.180865	-0.195987	0
40201.6	-0.179796	-0.195982	0
40201.7	-0.178784	-0.195992	0
40201.7	-0.177773	-0.195984	0
40201.8	-0.176723	-0.195985	0
40201.8	-0.175711	-0.195983	0
40201.8	-0.174661	-0.195985	0
40201.9	-0.173573	-0.19599	0
40202	-0.172523	-0.195985	0
40202	-0.171492	-0.195991	0
40202.1	-0.170442	-0.195977	0
40202.2	-0.169411	-0.195981	0
40202.3	-0.168399	-0.195984	0
40202.4	-0.167387	-0.195986	0
40202.5	-0.166375	-0.195986	0
40202.6	-0.165363	-0.19599	0
40202.7	-0.164332	-0.195987	0
40202.9	-0.163321	-0.195984	0
40203.1	-0.162271	-0.195979	0
40203.4	-0.161259	-0.195993	0
40203.7	-0.160228	-0.19599	0
40204	-0.159178	-0.195985	0
40204.5	-0.158109	-0.195982	0
40205.1	-0.157097	-0.195987	0
40205.7	-0.156085	-0.195984	0
40206.5	-0.155054	-0.195988	0
40207.2	-0.154042	-0.195986	0
40208.1	-0.153031	-0.195983	0
40209	-0.152019	-0.195987	0
40209.8	-0.150988	-0.195988	0
40210.7	-0.149919	-0.195984	0
40211.6	-0.148888	-0.195983	0
40212.4	-0.147876	-0.195981	0
40213.2	-0.146864	-0.195987	0
40214	-0.145814	-0.195986	0
40214.8	-0.144783	-0.195984	0
40215.6	-0.143771	-0.19599	0
40216.4	-0.14276	-0.195982	0
40217.3	-0.141691	-0.195987	0
40218.1	-0.14066	-0.195988	0
40219	-0.139648	-0.195981	0
40219.9	-0.138636	-0.195985	0
40220.7	-0.137586	-0.195992	0
40221.6	-0.136555	-0.195983	0
40222.6	-0.135543	-0.19599	0
40223.5	-0.134493	-0.195981	0
40224.6	-0.133481	-0.195987	0
40225.6	-0.13247	-0.195984	0
40226.6	-0.131458	-0.195988	0
40227.7	-0.130427	-0.195981	0
40228.9	-0.129377	-0.195989	0
40230.1	-0.128365	-0.19599	0
40231.3	-0.127353	-0.195988	0
40232.5	-0.126341	-0.195982	0
40234	-0.12531	-0.195988	0
40235.4	-0.12428	-0.195988	0
40236.9	-0.123249	-0.195983	0
40238.5	-0.122237	-0.195983	0
40240	-0.121225	-0.195985	0
40241.9	-0.120194	-0.195991	0
40243.8	-0.119163	-0.195988	0
40245.7	-0.118132	-0.195989	0
40247.8	-0.11712	-0.195988	0
40250.1	-0.116109	-0.195988	0
40252.5	-0.115097	-0.195988	0
40255.1	-0.114066	-0.195986	0
40257.9	-0.113016	-0.195981	0
40261	-0.111966	-0.195982	0
40264.3	-0.110916	-0.19599	0
40268	-0.109885	-0.195984	0
40271.8	-0.108873	-0.195983	0
40276	-0.107861	-0.195987	0
40280.4	-0.106849	-0.195983	0
40285.3	-0.105838	-0.195985	0
40290.4	-0.104826	-0.195989	0
40296.5	-0.103795	-0.195987	0
40302.8	-0.102783	-0.195985	0
40309.6	-0.101771	-0.195985	0
40317.1	-0.100759	-0.19599	0
40324.8	-0.0997476	-0.195986	0
40333.6	-0.0987357	-0.195988	0
40343.4	-0.0977239	-0.195983	0
40353.4	-0.0970367	-0.195988	0
40362.5	-0.0960248	-0.195984	0
40372.5	-0.0955094	-0.195986	0
40382.5	-0.0948412	-0.195986	0
40392.5	-0.094383	-0.195986	0
40402.5	-0.0938675	-0.195988	0
40412.5	-0.0932948	-0.195992	0
40422.5	-0.0928748	-0.195989	0
40432.5	-0.0924548	-0.19599	0
40442.5	-0.0921684	-0.19599	0
40452.5	-0.091863	-0.195986	0
40462.5	-0.0916339	-0.195991	0
40472.5	-0.091443	-0.195984	0
40482.5	-0.091233	-0.195988	0
40492.5	-0.090813	-0.195985	0
40502.5	-0.0906984	-0.195987	0
40512.5	-0.0904884	-0.195989	0
40522.5	-0.0904502	-0.195995	0
40532.5	-0.0901066	-0.195977	0
40542.5	-0.0900302	-0.195987	0
40552.5	-0.0899348	-0.195993	0
40562.5	-0.0896484	-0.195985	0
40572.5	-0.0895912	-0.195991	0
40582.5	-0.0894575	-0.19599	0
40592.5	-0.0893621	-0.195983	0
40602.5	-0.089343	-0.195988	0
40612.5	-0.0890757	-0.195988	0
40622.5	-0.088923	-0.195989	0
40632.5	-0.0888466	-0.195991	0
40642.5	-0.0886366	-0.195983	0
40652.5	-0.0886939	-0.195986	0
40662.5	-0.0885602	-0.195982	0
40672.5	-0.0883311	-0.195989	0
40682.5	-0.0884266	-0.19599	0
40692.5	-0.0883311	-0.195982	0
40702.5	-0.0882357	-0.195994	0
40712.5	-0.0881402	-0.195984	0
40722.5	-0.0880639	-0.195987	0
40732.5	-0.0879302	-0.19599	0
40742.5	-0.087873	-0.195988	0
40752.5	-0.0877202	-0.195982	0
40762.5	-0.0876248	-0.195983	0
40772.5	-0.0876057	-0.195988	0
40782.5	-0.0875484	-0.195987	0
40792.5	-0.0875102	-0.195986	0
40802.5	-0.0873766	-0.195984	0
40812.5	-0.0872239	-0.195991	0
40822.5	-0.087262	-0.195986	0
40832.5	-0.0871857	-0.195989	0
40842.5	-0.0871284	-0.195987	0
40852.5	-0.0868421	-0.195988	0
40862.5	-0.0869375	-0.195985	0
40872.5	-0.0866511	-0.195985	0
40882.5	-0.0867275	-0.19598	0
40892.5	-0.0866702	-0.19598	0
40902.5	-0.0866511	-0.195986	0
40912.5	-0.0864793	-0.19598	0
40922.5	-0.0863839	-0.195988	0
40932.5	-0.0863266	-0.195987	0
40942.5	-0.0862884	-0.195985	0
40952.5	-0.0862693	-0.195993	0
40962.5	-0.0861739	-0.195986	0
40972.5	-0.0860211	-0.195993	0
40982.5	-0.085983	-0.195987	0
40992.5	-0.0858875	-0.195991	0
41002.5	-0.0858302	-0.195987	0
41012.5	-0.0858111	-0.195989	0
41022.5	-0.0856966	-0.195988	0
41032.5	-0.085563	-0.195988	0
41042.5	-0.0855057	-0.195989	0
41052.5	-0.0854484	-0.19599	0
41062.5	-0.0852575	-0.19599	0
41072.5	-0.0852002	-0.195982	0
41082.5	-0.0852193	-0.195984	0
41092.5	-0.0851239	-0.195988	0
41102.5	-0.0850475	-0.195991	0
41112.5	-0.0849329	-0.19599	0
41122.5	-0.0848566	-0.195989	0
41132.5	-0.0847611	-0.195988	0
41142.5	-0.0848184	-0.195981	0
41152.5	-0.0847802	-0.195984	0
41162.5	-0.0845511	-0.19599	0
41172.5	-0.0844939	-0.195988	0
41182.5	-0.0844939	-0.195988	0
41192.5	-0.0842457	-0.195983	0
41202.5	-0.0841693	-0.195986	0
41212.5	-0.0841884	-0.195983	0
41222.5	-0.0841502	-0.195989	0
41232.5	-0.0840548	-0.195986	0
41242.5	-0.0840357	-0.195986	0
41252.5	-0.0841311	-0.195988	0
41262.5	-0.0837875	-0.195983	0
41272.5	-0.0838448	-0.195988	0
41282.5	-0.0837111	-0.195985	0
41292.5	-0.0835775	-0.195984	0
41302.5	-0.0836157	-0.19599	0
41312.5	-0.083482	-0.195989	0
41322.5	-0.0835202	-0.195987	0
41332.5	-0.0833102	-0.195984	0
41342.5	-0.0832148	-0.195983	0
41352.5	-0.0833293	-0.195988	0
41362.5	-0.0833102	-0.195991	0
41372.5	-0.0832529	-0.195989	0
41382.5	-0.0830048	-0.195985	0
41392.5	-0.0829857	-0.195988	0
41402.5	-0.0829284	-0.195983	0
41412.5	-0.0828138	-0.19599	0
41422.5	-0.0828711	-0.195985	0
41429.9	-0.0860784	-0.195937	0
41429.9	-0.0834057	-0.196011	0
41439.9	-0.0827184	-0.195988	0
41449.9	-0.0826993	-0.195991	0
41459.9	-0.0827375	-0.195988	0
41469.9	-0.0825084	-0.195986	0
41479.9	-0.0823748	-0.195994	0
41489.9	-0.0825084	-0.195987	0
41499.9	-0.0823175	-0.195988	0
41509.9	-0.0823557	-0.195987	0
41519.9	-0.0823748	-0.195983	0
41529.9	-0.0822602	-0.195984	0
41539.9	-0.0822984	-0.195983	0
41549.9	-0.0821457	-0.195986	0
41559.9	-0.0821075	-0.195984	0
41569.9	-0.0820311	-0.195994	0
41579.9	-0.082012	-0.195992	0
41589.9	-0.0820884	-0.195984	0
41599.9	-0.0818784	-0.195987	0
41609.9	-0.0818975	-0.195986	0
41619.9	-0.0818784	-0.195983	0
41629.9	-0.0817829	-0.19599	0
41639.9	-0.0818211	-0.195982	0
41649.9	-0.0816111	-0.195983	0
41659.9	-0.0817257	-0.195989	0
41669.9	-0.0817447	-0.195987	0
41679.9	-0.0814584	-0.195986	0
41689.9	-0.0815729	-0.195991	0
41699.9	-0.0815729	-0.19599	0
41709.9	-0.0814584	-0.195987	0
41719.9	-0.0814775	-0.195988	0
41729.9	-0.0812675	-0.195993	0
41739.9	-0.0813057	-0.195986	0
41749.9	-0.0812293	-0.195982	0
41759.9	-0.0812484	-0.195988	0
41769.9	-0.0812866	-0.195982	0
41779.9	-0.0811338	-0.195988	0
41789.9	-0.0810384	-0.195985	0
41799.9	-0.0810193	-0.195986	0
41809.9	-0.0811338	-0.195989	0
41819.9	-0.0809811	-0.195988	0
41829.9	-0.0809811	-0.195988	0
41839.9	-0.0809811	-0.195984	0
41849.9	-0.0808666	-0.195993	0
41859.9	-0.0807902	-0.195982	0
41869.9	-0.0807902	-0.195989	0
41879.9	-0.0808093	-0.195985	0
41889.9	-0.0806566	-0.195985	0
41899.9	-0.0805993	-0.19599	0
41909.9	-0.080752	-0.195988	0
41919.9	-0.0805611	-0.195989	0
41929.9	-0.0806184	-0.195984	0
41939.9	-0.0806375	-0.195983	0
41949.9	-0.0806566	-0.195983	0
41959.9	-0.0803893	-0.195984	0
41969.9	-0.0804847	-0.195986	0
41979.9	-0.0804847	-0.195984	0
41989.9	-0.0803893	-0.195989	0
41999.9	-0.0803129	-0.195989	0
42000.5	-0.0804275	-0.195984	0