File: EXPERIMENTAL/Data/Battery-cycling/JP-measurements/T-cell/2024-04-25_JP-A1-02_T-cell_Li-Cu_1-mm-PP-spacer_75muL-4MLiFSI-DME_inside-glovebox_added-OCV-0.1s_02_MB_C05.txt
time/s	Ewe/V	I/mA	error
60.053	2.9357	-0.0250364	0
60.1494	0.00842465	-4.67925	0
60.1582	0.00842465	-4.29948	0
60.1688	0.00829091	-3.92837	0
60.1818	0.00848196	-3.5616	0
60.1982	0.00853928	-3.19922	0
60.22	0.00842465	-2.83454	0
60.2494	0.00846286	-2.47911	0
60.2926	0.00844375	-2.12443	0
60.3612	0.00844375	-1.76976	0
60.4794	0.00838644	-1.41681	0
60.7086	0.00848196	-1.06328	0
61.2896	0.00844375	-0.710583	0
64.2816	0.00838644	-0.35976	0
97.4128	0.00840554	-0.128499	0
167.413	0.00848196	-0.0835442	0
237.413	0.00842465	-0.0685297	0
307.413	0.00853928	-0.0598954	0
377.413	0.00838644	-0.0546486	0
447.413	0.00848196	-0.0503696	0
517.413	0.00853928	-0.0470967	0
587.413	0.00844375	-0.0446932	0
657.413	0.00857749	-0.0423535	0
727.413	0.00844375	-0.0403849	0
797.413	0.00857749	-0.0387284	0
867.413	0.00852017	-0.0371361	0
937.413	0.00840554	-0.036097	0
1007.41	0.00840554	-0.0349122	0
1077.41	0.00848196	-0.0335829	0
1147.41	0.00846286	-0.032589	0
1217.41	0.00846286	-0.031564	0
1287.41	0.00838644	-0.0307007	0
1357.41	0.00844375	-0.0298387	0
1427.41	0.00842465	-0.0291498	0
1497.41	0.00848196	-0.0284444	0
1567.41	0.00846286	-0.0277498	0
1637.41	0.00850107	-0.0273659	0
1707.41	0.00852017	-0.0267859	0
1777.41	0.00842465	-0.0262498	0
1847.41	0.00842465	-0.0256571	0
1917.41	0.00852017	-0.0251414	0
1987.41	0.00844375	-0.0246556	0
2057.41	0.00846286	-0.0241106	0
2127.41	0.00852017	-0.0237706	0
2197.41	0.00838644	-0.0233409	0
2267.41	0.00846286	-0.0230773	0
2337.41	0.00846286	-0.0227081	0
2407.41	0.00850107	-0.0224037	0
2477.41	0.00846286	-0.0221039	0
2547.41	0.00840554	-0.021762	0
2617.41	0.00855838	-0.0214748	0
2687.41	0.00848196	-0.0212011	0
2757.41	0.00842465	-0.0208898	0
2827.41	0.00840554	-0.0207109	0
2897.41	0.00842465	-0.020376	0
2967.41	0.00844375	-0.02029	0
3037.41	0.00848196	-0.020022	0
3107.41	0.00848196	-0.019682	0
3177.41	0.00850107	-0.0195534	0
3247.41	0.00853928	-0.0192987	0
3317.41	0.00850107	-0.019025	0
3387.41	0.00848196	-0.01879	0
3457.41	0.00850107	-0.0186124	0
3527.41	0.00852017	-0.0183953	0
3597.41	0.00846286	-0.0181859	0
3667.41	0.00846286	-0.0180757	0
3737.41	0.00842465	-0.0178573	0
3807.41	0.00853928	-0.0176027	0
3877.41	0.00844375	-0.0174467	0
3947.41	0.00842465	-0.0173238	0
4017.41	0.00844375	-0.017178	0
4087.41	0.00842465	-0.0170456	0
4157.41	0.00846286	-0.0168737	0
4227.41	0.00842465	-0.0168406	0
4297.41	0.00853928	-0.0167075	0
4367.41	0.00840554	-0.016605	0
4437.41	0.00850107	-0.0164637	0
4507.41	0.00859659	-0.0162676	0
4577.41	0.00857749	-0.0162033	0
4647.41	0.00844375	-0.016039	0
4717.41	0.00850107	-0.0158531	0
4787.41	0.00848196	-0.0157595	0
4857.41	0.00855838	-0.0156373	0
4927.41	0.00853928	-0.0155367	0
4997.41	0.00859659	-0.0154355	0
5067.41	0.00846286	-0.0153432	0
5137.41	0.00853928	-0.0154247	0
5207.41	0.00842465	-0.0153483	0
5277.41	0.00844375	-0.0151496	0
5347.41	0.00852017	-0.0150599	0
5417.41	0.00850107	-0.0149924	0
5487.41	0.00846286	-0.0149694	0
5557.41	0.00844375	-0.014881	0
5627.41	0.00855838	-0.0148045	0
5697.41	0.00842465	-0.0146409	0
5767.41	0.00848196	-0.0145365	0
5837.41	0.00838644	-0.0145009	0
5907.41	0.00850107	-0.0143735	0
5977.41	0.00848196	-0.0142952	0
6047.41	0.00832912	-0.0141813	0
6117.41	0.00857749	-0.0140845	0
6187.41	0.00850107	-0.0139845	0
6257.41	0.00840554	-0.0139304	0
6327.41	0.00846286	-0.013805	0
6397.41	0.00844375	-0.0137592	0
6467.41	0.00857749	-0.0136662	0
6537.41	0.00846286	-0.0136165	0
6607.41	0.00855838	-0.0135707	0
6677.41	0.00844375	-0.0134205	0
6747.41	0.00852017	-0.0133937	0
6817.41	0.00846286	-0.0132944	0
6887.41	0.0086348	-0.013176	0
6957.41	0.00846286	-0.0130633	0
7027.41	0.00848196	-0.0130423	0
7097.41	0.00848196	-0.012964	0
7167.41	0.00850107	-0.0128977	0
7237.41	0.00852017	-0.0128315	0
7307.41	0.00846286	-0.0127666	0
7377.41	0.00857749	-0.0126393	0
7447.41	0.00850107	-0.0125788	0
7517.41	0.00853928	-0.0125317	0
7587.41	0.00838644	-0.012447	0
7657.41	0.00846286	-0.0124171	0
7727.41	0.00842465	-0.0123712	0
7797.41	0.00857749	-0.0123037	0
7867.41	0.00844375	-0.0122726	0
7937.41	0.00848196	-0.0120943	0
8007.41	0.00857749	-0.0120249	0
8077.41	0.00846286	-0.0120752	0
8147.41	0.00852017	-0.0120325	0
8217.41	0.00836733	-0.01203	0
8287.41	0.00844375	-0.0119854	0
8357.41	0.00844375	-0.0118778	0
8427.41	0.00850107	-0.0118014	0
8497.41	0.00852017	-0.0117562	0
8567.41	0.00853928	-0.0116906	0
8637.41	0.00840554	-0.0116403	0
8707.41	0.00842465	-0.0116009	0
8777.41	0.00848196	-0.0115277	0
8847.41	0.00850107	-0.0114888	0
8917.41	0.00844375	-0.0114067	0
8987.41	0.00848196	-0.0113787	0
9057.41	0.00848196	-0.0112711	0
9127.41	0.00852017	-0.0112227	0
9197.41	0.00855838	-0.0111495	0
9267.41	0.00844375	-0.0110852	0
9337.41	0.00834823	-0.01104	0
9407.41	0.00844375	-0.0110228	0
9477.41	0.00846286	-0.0109763	0
9547.41	0.00848196	-0.0109018	0
9617.41	0.00838644	-0.0108471	0
9687.41	0.00853928	-0.0108248	0
9757.41	0.00840554	-0.0107618	0
9827.41	0.00848196	-0.0107159	0
9897.41	0.00844375	-0.0106675	0
9967.41	0.00855838	-0.0106548	0
10037.4	0.00842465	-0.0106121	0
10107.4	0.00852017	-0.0105485	0
10177.4	0.00840554	-0.0105294	0
10247.4	0.00846286	-0.0104924	0
10317.4	0.00855838	-0.0103963	0
10387.4	0.00844375	-0.0103288	0
10457.4	0.00852017	-0.010297	0
10527.4	0.00848196	-0.0102741	0
10597.4	0.00852017	-0.010248	0
10667.4	0.00836733	-0.0101486	0
10737.4	0.00848196	-0.0101353	0
10807.4	0.00852017	-0.010099	0
10877.4	0.00846286	-0.0100894	0
10947.4	0.00852017	-0.0100602	0
11017.4	0.00850107	-0.0100003	0
11087.4	0.00850107	-0.0100029	0
11157.4	0.00852017	-0.0099099	0
11227.4	0.00844375	-0.00987998	0
11297.4	0.00842465	-0.00984051	0
11367.4	0.00838644	-0.0097813	0
11437.4	0.00842465	-0.00975456	0
11507.4	0.00850107	-0.00980231	0
11577.4	0.00844375	-0.00975074	0
11647.4	0.00855838	-0.00971763	0
11717.4	0.00840554	-0.00964696	0
11787.4	0.00840554	-0.00966415	0
11857.4	0.00848196	-0.00957247	0
11927.4	0.00853928	-0.00959985	0
11997.4	0.00852017	-0.00957311	0
12067.4	0.00848196	-0.00953427	0
12137.4	0.00852017	-0.00949989	0
12207.4	0.00852017	-0.00942668	0
12277.4	0.00850107	-0.00941203	0
12347.4	0.00850107	-0.0093872	0
12417.4	0.00852017	-0.00938466	0
12487.4	0.00848196	-0.00936619	0
12557.4	0.00844375	-0.00931844	0
12627.4	0.00846286	-0.00926051	0
12697.4	0.00852017	-0.00920957	0
12767.4	0.00848196	-0.00921021	0
12837.4	0.00852017	-0.00914909	0
12907.4	0.00844375	-0.00910835	0
12977.4	0.00844375	-0.00909689	0
13047.4	0.00855838	-0.00906187	0
13117.4	0.00846286	-0.00904595	0
13187.4	0.00857749	-0.00898929	0
13257.4	0.00848196	-0.00898738	0
13327.4	0.00848196	-0.0089912	0
13397.4	0.00850107	-0.00894854	0
13467.4	0.00846286	-0.00893072	0
13537.4	0.00840554	-0.00890016	0
13607.4	0.00846286	-0.0088505	0
13677.4	0.00850107	-0.00862703	0
13747.4	0.00852017	-0.00870088	0
13817.4	0.00855838	-0.00855254	0
13887.4	0.00848196	-0.00856909	0
13957.4	0.00836733	-0.00855636	0
14027.4	0.00848196	-0.00853471	0
14097.4	0.00846286	-0.00847359	0
14167.4	0.00844375	-0.00849588	0
14237.4	0.00855838	-0.00841884	0
14307.4	0.00850107	-0.00840611	0
14377.4	0.00850107	-0.00844049	0
14447.4	0.00838644	-0.00837746	0
14517.4	0.00852017	-0.00832207	0
14587.4	0.00844375	-0.00835327	0
14657.4	0.00844375	-0.0083017	0
14727.4	0.00848196	-0.00826604	0
14797.4	0.00846286	-0.0082253	0
14867.4	0.00850107	-0.00825968	0
14937.4	0.00848196	-0.00821893	0
15007.4	0.00857749	-0.00816418	0
15077.4	0.00846286	-0.00811261	0
15147.4	0.00850107	-0.00809733	0
15217.4	0.00850107	-0.00809033	0
15287.4	0.00844375	-0.00805276	0
15357.4	0.00840554	-0.00806359	0
15427.4	0.00844375	-0.00802857	0
15497.4	0.00848196	-0.00800883	0
15567.4	0.00844375	-0.00801202	0
15637.4	0.00848196	-0.00797063	0
15707.4	0.00848196	-0.00797445	0
15777.4	0.00848196	-0.00795854	0
15847.4	0.00848196	-0.00791079	0
15917.4	0.00846286	-0.00791715	0
15987.4	0.00850107	-0.00787895	0
16057.4	0.00844375	-0.0078694	0
16127.4	0.00853928	-0.00786431	0
16197.4	0.00842465	-0.0077981	0
16267.4	0.00842465	-0.00782738	0
16337.4	0.00857749	-0.00783184	0
16407.4	0.00842465	-0.00778091	0
16477.4	0.00850107	-0.00772297	0
16547.4	0.00852017	-0.00774334	0
16617.4	0.00857749	-0.0077287	0
16687.4	0.00855838	-0.00772361	0
16757.4	0.00848196	-0.00764466	0
16827.4	0.00846286	-0.00766822	0
16897.4	0.00838644	-0.00765485	0
16967.4	0.00842465	-0.00767586	0
17037.4	0.00859659	-0.00763893	0
17107.4	0.00850107	-0.00762684	0
17177.4	0.00842465	-0.00763575	0
17247.4	0.00850107	-0.00758673	0
17317.4	0.00840554	-0.0075568	0
17387.4	0.00852017	-0.00751478	0
17457.4	0.00832912	-0.00750714	0
17527.4	0.00846286	-0.00749186	0
17597.4	0.00850107	-0.00750969	0
17667.4	0.00850107	-0.00745112	0
17737.4	0.00852017	-0.0074091	0
17807.4	0.00846286	-0.00743011	0
17877.4	0.00838644	-0.00741164	0
17947.4	0.00848196	-0.00742119	0
18017.4	0.00846286	-0.00736326	0
18087.4	0.00840554	-0.00740782	0
18157.4	0.00859659	-0.00738809	0
18227.4	0.00853928	-0.00732315	0
18297.4	0.00846286	-0.00735371	0
18367.4	0.00852017	-0.00731806	0
18437.4	0.00848196	-0.00731678	0
18507.4	0.00848196	-0.00727413	0
18577.4	0.00842465	-0.00730087	0
18647.4	0.00848196	-0.00723975	0
18717.4	0.00846286	-0.00726012	0
18787.4	0.00848196	-0.00724293	0
18857.4	0.00850107	-0.00719645	0
18927.4	0.00846286	-0.00718372	0
18997.4	0.00844375	-0.00719263	0
19067.4	0.00846286	-0.00716271	0
19137.4	0.00850107	-0.00712515	0
19207.4	0.00850107	-0.00713279	0
19277.4	0.00852017	-0.00713088	0
19347.4	0.00857749	-0.00708122	0
19417.4	0.00850107	-0.00705957	0
19487.4	0.00842465	-0.00707421	0
19557.4	0.00834823	-0.0070774	0
19627.4	0.00846286	-0.00706848	0
19697.4	0.00850107	-0.00705066	0
19767.4	0.00853928	-0.00700291	0
19837.4	0.00852017	-0.00695898	0
19907.4	0.00846286	-0.00683992	0
19977.4	0.00848196	-0.00689913	0
20047.4	0.00850107	-0.00685329	0
20117.4	0.00850107	-0.0068482	0
20187.4	0.00852017	-0.00685775	0
20257.4	0.00836733	-0.00681637	0
20327.4	0.00840554	-0.00680363	0
20397.4	0.00852017	-0.00678071	0
20467.4	0.00846286	-0.00679599	0
20537.4	0.00844375	-0.00676543	0
20607.4	0.00848196	-0.00677307	0
20677.4	0.00848196	-0.0067527	0
20747.4	0.00848196	-0.00673042	0
20817.4	0.00840554	-0.00671004	0
20887.4	0.00848196	-0.00672087	0
20957.4	0.00842465	-0.00667757	0
21027.4	0.00848196	-0.00663556	0
21097.4	0.00846286	-0.00664001	0
21167.4	0.00834823	-0.00664192	0
21237.4	0.00853928	-0.00661518	0
21307.4	0.00844375	-0.00657953	0
21377.4	0.00848196	-0.00660882	0
21447.4	0.00840554	-0.00661073	0
21517.4	0.00846286	-0.00657635	0
21587.4	0.00836733	-0.00655152	0
21657.4	0.00848196	-0.00654515	0
21727.4	0.00855838	-0.00654069	0
21797.4	0.00844375	-0.00656489	0
21867.4	0.00855838	-0.00648849	0
21937.4	0.00852017	-0.00646939	0
22007.4	0.00848196	-0.00646684	0
22077.4	0.00834823	-0.00646429	0
22147.4	0.00842465	-0.00643628	0
22217.4	0.00852017	-0.00643437	0
22287.4	0.00844375	-0.00641591	0
22357.4	0.00848196	-0.00641527	0
22427.4	0.00846286	-0.00638598	0
22497.4	0.00842465	-0.00636243	0
22567.4	0.00850107	-0.00634142	0
22637.4	0.00844375	-0.00631213	0
22707.4	0.00853928	-0.00638789	0
22777.4	0.00848196	-0.00628094	0
22847.4	0.00842465	-0.00627139	0
22917.4	0.00846286	-0.0062873	0
22987.4	0.00842465	-0.00623701	0
23057.4	0.00852017	-0.00624847	0
23127.4	0.00844375	-0.00625165	0
23197.4	0.00838644	-0.00621154	0
23267.4	0.00840554	-0.00624083	0
23337.4	0.00852017	-0.00624401	0
23407.4	0.00842465	-0.00619817	0
23477.4	0.00840554	-0.0061778	0
23547.4	0.00850107	-0.00623382	0
23617.4	0.00848196	-0.00620963	0
23687.4	0.00842465	-0.00618798	0
23757.4	0.00838644	-0.0061778	0
23827.4	0.00842465	-0.00612877	0
23897.4	0.00842465	-0.00614342	0
23967.4	0.00848196	-0.00615106	0
24037.4	0.00848196	-0.00610967	0
24107.4	0.00859659	-0.0061014	0
24177.4	0.00850107	-0.00611222	0
24247.4	0.00857749	-0.00604346	0
24317.4	0.00842465	-0.00608739	0
24387.4	0.00838644	-0.00605556	0
24457.4	0.00853928	-0.00605301	0
24527.4	0.00846286	-0.00602181	0
24597.4	0.00852017	-0.00601354	0
24667.4	0.00846286	-0.00602818	0
24737.4	0.00846286	-0.0059798	0
24807.4	0.00842465	-0.00599062	0
24877.4	0.00846286	-0.00596834	0
24947.4	0.00840554	-0.00600144	0
25017.4	0.00852017	-0.00596515	0
25087.4	0.00850107	-0.00597088	0
25157.4	0.00848196	-0.00592313	0
25227.4	0.00844375	-0.00594032	0
25297.4	0.00836733	-0.00593396	0
25367.4	0.00846286	-0.00594669	0
25437.4	0.00848196	-0.00593587	0
25507.4	0.00848196	-0.00591804	0
25577.4	0.00850107	-0.00588939	0
25647.4	0.00850107	-0.00586902	0
25717.4	0.00852017	-0.00587984	0
25787.4	0.00844375	-0.00583846	0
25857.4	0.00852017	-0.00571431	0
25927.4	0.00846286	-0.00573277	0
25997.4	0.00853928	-0.00574869	0
26067.4	0.00850107	-0.0056933	0
26137.4	0.00853928	-0.00573659	0
26207.4	0.00852017	-0.0057073	0
26277.4	0.00850107	-0.00571431	0
26347.4	0.00853928	-0.0056691	0
26417.4	0.00852017	-0.00569266	0
26487.4	0.00844375	-0.00566656	0
26557.4	0.00832912	-0.00567611	0
26627.4	0.00846286	-0.005643	0
26697.4	0.00848196	-0.0056169	0
26767.4	0.00846286	-0.00565955	0
26837.4	0.00840554	-0.00561117	0
26907.4	0.00846286	-0.0056169	0
26977.4	0.00853928	-0.00563027	0
27047.4	0.00848196	-0.00557551	0
27117.4	0.00840554	-0.00560416	0
27187.4	0.00844375	-0.00552076	0
27257.4	0.00838644	-0.00557297	0
27327.4	0.00846286	-0.00555005	0
27397.4	0.00842465	-0.00555896	0
27467.4	0.00852017	-0.00550103	0
27537.4	0.00846286	-0.00553668	0
27607.4	0.00848196	-0.00553923	0
27677.4	0.00846286	-0.0055093	0
27747.4	0.00840554	-0.00552076	0
27817.4	0.00852017	-0.00552777	0
27887.4	0.00850107	-0.00546983	0
27957.4	0.00844375	-0.00545646	0
28027.4	0.00848196	-0.00548575	0
28097.4	0.00838644	-0.00548002	0
28167.4	0.00840554	-0.00544818	0
28237.4	0.00844375	-0.00546983	0
28307.4	0.00840554	-0.005445	0
28377.4	0.00842465	-0.0054068	0
28447.4	0.00850107	-0.0053998	0
28517.4	0.00846286	-0.00542972	0
28587.4	0.00842465	-0.00540553	0
28657.4	0.00850107	-0.00542081	0
28727.4	0.00842465	-0.00536733	0
28797.4	0.00846286	-0.00537051	0
28867.4	0.00846286	-0.00538197	0
28937.4	0.00844375	-0.00535969	0
29007.4	0.00838644	-0.00535905	0
29077.4	0.00844375	-0.00538324	0
29147.4	0.00848196	-0.00534313	0
29217.4	0.00850107	-0.00535587	0
29287.4	0.00842465	-0.00535905	0
29357.4	0.00855838	-0.00528201	0
29427.4	0.00853928	-0.00533422	0
29497.4	0.00844375	-0.00527819	0
29567.4	0.00840554	-0.00528392	0
29637.4	0.00842465	-0.00529857	0
29707.4	0.00848196	-0.00529666	0
29777.4	0.00840554	-0.00525718	0
29847.4	0.00836733	-0.00527437	0
29917.4	0.00852017	-0.00523426	0
29987.4	0.00850107	-0.00520943	0
30057.4	0.00844375	-0.00525591	0
30127.4	0.00848196	-0.00523681	0
30197.4	0.00850107	-0.00519607	0
30267.4	0.00852017	-0.00519861	0
30337.4	0.00850107	-0.0051967	0
30407.4	0.00836733	-0.0052018	0
30477.4	0.00850107	-0.00519543	0
30547.4	0.00840554	-0.0051897	0
30617.4	0.00848196	-0.00513749	0
30687.4	0.00855838	-0.00517187	0
30757.4	0.00848196	-0.00514068	0
30827.4	0.00844375	-0.00512731	0
30897.4	0.00850107	-0.00511648	0
30967.4	0.00840554	-0.00515914	0
31037.4	0.00855838	-0.00510248	0
31107.4	0.0086157	-0.00510757	0
31177.4	0.00842465	-0.00512858	0
31247.4	0.00850107	-0.00511585	0
31317.4	0.00840554	-0.00506491	0
31387.4	0.00834823	-0.00510375	0
31457.4	0.00855838	-0.00508147	0
31527.4	0.00846286	-0.00507319	0
31597.4	0.00846286	-0.00501716	0
31667.4	0.00836733	-0.00503435	0
31737.4	0.00842465	-0.00504327	0
31807.4	0.00844375	-0.00506746	0
31877.4	0.00848196	-0.00501971	0
31947.4	0.00853928	-0.00502544	0
32017.4	0.00852017	-0.00501462	0
32087.4	0.00850107	-0.0050057	0
32157.4	0.00846286	-0.00497769	0
32227.4	0.00852017	-0.00493885	0
32297.4	0.00846286	-0.0049605	0
32367.4	0.00848196	-0.00497896	0
32437.4	0.00844375	-0.00496177	0
32507.4	0.00840554	-0.00496114	0
32577.4	0.00846286	-0.00495859	0
32647.4	0.00844375	-0.0049484	0
32717.4	0.00840554	-0.00493312	0
32787.4	0.00844375	-0.00492294	0
32857.4	0.00848196	-0.00492867	0
32927.4	0.00852017	-0.00488665	0
32997.4	0.00850107	-0.00492039	0
33067.4	0.00848196	-0.00491211	0
33137.4	0.00848196	-0.00480197	0
33207.4	0.00842465	-0.00481598	0
33277.4	0.00853928	-0.00481661	0
33347.4	0.00840554	-0.00477587	0
33417.4	0.00850107	-0.0048128	0
33487.4	0.00842465	-0.00481216	0
33557.4	0.00838644	-0.00482234	0
33627.4	0.00836733	-0.00482043	0
33697.4	0.00842465	-0.00481025	0
33767.4	0.00848196	-0.00476759	0
33837.4	0.00840554	-0.00478351	0
33907.4	0.00838644	-0.00479688	0
33977.4	0.00844375	-0.00476887	0
34047.4	0.00838644	-0.00478797	0
34117.4	0.00836733	-0.00476505	0
34187.4	0.00844375	-0.00474276	0
34257.4	0.00850107	-0.00478287	0
34327.4	0.00831002	-0.00474022	0
34397.4	0.00848196	-0.00474213	0
34467.4	0.00844375	-0.00476759	0
34537.4	0.00842465	-0.00473067	0
34607.4	0.00846286	-0.00471666	0
34677.4	0.00848196	-0.00470584	0
34747.4	0.00842465	-0.00475168	0
34817.4	0.00848196	-0.00473194	0
34887.4	0.00855838	-0.00466827	0
34957.4	0.00852017	-0.00467719	0
35027.4	0.00840554	-0.00468355	0
35097.4	0.00848196	-0.00467782	0
35167.4	0.00842465	-0.00467973	0
35237.4	0.00840554	-0.00466445	0
35307.4	0.00844375	-0.00464472	0
35377.4	0.00838644	-0.00465745	0
35447.4	0.00850107	-0.00468992	0
35517.4	0.00852017	-0.00463007	0
35587.4	0.00852017	-0.00460843	0
35657.4	0.00848196	-0.00460715	0
35727.4	0.00842465	-0.00463389	0
35797.4	0.00842465	-0.00464344	0
35867.4	0.00844375	-0.00462562	0
35937.4	0.00846286	-0.00458487	0
36007.4	0.00852017	-0.00453712	0
36077.4	0.00842465	-0.0045906	0
36147.4	0.00852017	-0.00458041	0
36217.4	0.00848196	-0.00454285	0
36287.4	0.00840554	-0.00455749	0
36357.4	0.00844375	-0.00458805	0
36427.4	0.00850107	-0.0045333	0
36497.4	0.00844375	-0.00457723	0
36567.4	0.00844375	-0.00450911	0
36637.4	0.00857749	-0.00454285	0
36707.4	0.00848196	-0.00446518	0
36777.4	0.00838644	-0.00453707	0
36847.4	0.00840554	-0.00454172	0
36917.4	0.00836733	-0.00453045	0
36987.4	0.00853928	-0.0045279	0
37057.4	0.00848196	-0.00452204	0
37127.4	0.00852017	-0.00450644	0
37197.4	0.00844375	-0.0045074	0
37267.4	0.00840554	-0.00449402	0
37337.4	0.00840554	-0.00449218	0
37407.4	0.00846286	-0.00446549	0
37477.4	0.00842465	-0.00440875	0
37547.4	0.0086348	-0.00442875	0
37617.4	0.00857749	-0.00441104	0
37687.4	0.00840554	-0.00442053	0
37757.4	0.00844375	-0.00440658	0
37827.4	0.00848196	-0.00442008	0
37897.4	0.00848196	-0.00442512	0
37967.4	0.00852017	-0.00442149	0
38037.4	0.00850107	-0.00439888	0
38107.4	0.00844375	-0.00438066	0
38177.4	0.00836733	-0.00435086	0
38247.4	0.00842465	-0.00434169	0
38317.4	0.00846286	-0.00435252	0
38387.4	0.00853928	-0.00435691	0
38457.4	0.00846286	-0.00433481	0
38527.4	0.00853928	-0.00431443	0
38597.4	0.00842465	-0.00432239	0
38667.4	0.00852017	-0.00431055	0
38737.4	0.00840554	-0.00431475	0
38807.4	0.00844375	-0.00428679	0
38877.4	0.00848196	-0.00429329	0
38947.4	0.00844375	-0.00428456	0
39017.4	0.00836733	-0.00428947	0
39087.4	0.00836733	-0.00428609	0
39157.4	0.00846286	-0.00427113	0
39227.4	0.00857749	-0.00424693	0
39297.4	0.00840554	-0.00425641	0
39367.4	0.00838644	-0.0042524	0
39437.4	0.00846286	-0.00424731	0
39507.4	0.00836733	-0.00424572	0
39577.4	0.00848196	-0.00423998	0
39647.4	0.00844375	-0.00422846	0
39717.4	0.00844375	-0.00421687	0
39787.4	0.00844375	-0.00420273	0
39857.4	0.00846286	-0.00420922	0
39927.4	0.00842465	-0.00420598	0
39997.4	0.00842465	-0.00419591	0
40067.4	0.00859659	-0.00418897	0
40137.4	0.00852017	-0.00418044	0
40207.4	0.00846286	-0.00417401	0
40277.4	0.00850107	-0.00418611	0
40347.4	0.00846286	-0.00416592	0
40417.4	0.00844375	-0.0041684	0
40487.4	0.00844375	-0.00416592	0
40557.4	0.00838644	-0.00416254	0
40627.4	0.00840554	-0.00416484	0
40697.4	0.00844375	-0.00416089	0
40767.4	0.00844375	-0.00413312	0
40837.4	0.00846286	-0.00413452	0
40907.4	0.00855838	-0.00413471	0
40977.4	0.00850107	-0.0041314	0
41047.4	0.00855838	-0.00413197	0
41117.4	0.00848196	-0.00411433	0
41187.4	0.00848196	-0.00409918	0
41257.4	0.00846286	-0.00410363	0
41327.4	0.00840554	-0.0041079	0
41397.4	0.00852017	-0.0040986	0
41467.4	0.00842465	-0.00408816	0
41537.4	0.00838644	-0.00409122	0
41607.4	0.00846286	-0.00402702	0
41677.4	0.00852017	-0.00404536	0
41747.4	0.00844375	-0.00403632	0
41817.4	0.00844375	-0.00403148	0
41887.4	0.00840554	-0.0040288	0
41957.4	0.00850107	-0.00402785	0
42027.4	0.00840554	-0.0040146	0
42097.4	0.00836733	-0.00401059	0
42167.4	0.00848196	-0.00402014	0
42237.4	0.00850107	-0.00398588	0
42307.4	0.00846286	-0.00399187	0
42377.4	0.00846286	-0.00398868	0
42447.4	0.00832912	-0.00398034	0
42517.4	0.00846286	-0.00397391	0
42587.4	0.00846286	-0.00398512	0
42657.4	0.00842465	-0.0039762	0
42727.4	0.00846286	-0.00397486	0
42797.4	0.00842465	-0.0039741	0
42867.4	0.00840554	-0.00395136	0
42937.4	0.00848196	-0.00394983	0
43007.4	0.00850107	-0.00392977	0
43077.4	0.00842465	-0.0039527	0
43147.4	0.00840554	-0.00394277	0
43217.4	0.00842465	-0.0039392	0
43287.4	0.00848196	-0.00393041	0
43357.4	0.00840554	-0.00392716	0
43427.4	0.00831002	-0.00392691	0
43497.4	0.00848196	-0.00392799	0
43567.4	0.00857749	-0.00391009	0
43637.4	0.00842465	-0.00389487	0
43707.4	0.00848196	-0.00391334	0
43777.4	0.00846286	-0.00389729	0
43847.4	0.00846286	-0.00389042	0
43917.4	0.00844375	-0.00390226	0
43987.4	0.00844375	-0.00388806	0
44057.4	0.00855838	-0.00387984	0
44127.4	0.00848196	-0.00388386	0
44197.4	0.00844375	-0.003868	0
44267.4	0.00844375	-0.0038587	0
44337.4	0.00848196	-0.00385889	0
44407.4	0.00842465	-0.00385469	0
44477.4	0.00840554	-0.00385246	0
44547.4	0.00846286	-0.00383552	0
44617.4	0.00850107	-0.0038189	0
44687.4	0.00842465	-0.00382711	0
44757.4	0.00850107	-0.0038089	0
44827.4	0.00844375	-0.00381584	0
44897.4	0.00836733	-0.00380731	0
44967.4	0.00846286	-0.00379317	0
45037.4	0.00844375	-0.00379909	0
45107.4	0.00850107	-0.00379107	0
45177.4	0.00840554	-0.00380056	0
45247.4	0.00852017	-0.00379145	0
45317.4	0.00842465	-0.0037861	0
45387.4	0.00848196	-0.00378769	0
45457.4	0.00852017	-0.00376623	0
45527.4	0.00844375	-0.00374279	0
45597.4	0.00855838	-0.00375298	0
45667.4	0.00842465	-0.00373706	0
45737.4	0.00844375	-0.00374789	0
45807.4	0.00844375	-0.00373643	0
45877.4	0.00844375	-0.0037328	0
45947.4	0.00844375	-0.00373305	0
46017.4	0.00848196	-0.0037342	0
46087.4	0.00844375	-0.00370847	0
46157.4	0.00842465	-0.00375655	0
46227.4	0.00848196	-0.00372853	0
46297.4	0.00852017	-0.00372369	0
46367.4	0.00842465	-0.00371515	0
46437.4	0.00850107	-0.00369344	0
46507.4	0.00852017	-0.00369452	0
46577.4	0.00853928	-0.00369841	0
46647.4	0.00842465	-0.00369166	0
46717.4	0.00853928	-0.00369917	0
46787.4	0.00852017	-0.00368229	0
46857.4	0.00855838	-0.00365383	0
46927.4	0.00844375	-0.00366752	0
46997.4	0.00855838	-0.0036637	0
47067.4	0.00844375	-0.00367771	0
47137.4	0.00846286	-0.00365313	0
47207.4	0.00840554	-0.00364306	0
47277.4	0.00838644	-0.00363822	0
47347.4	0.00840554	-0.00362568	0
47417.4	0.00846286	-0.00363364	0
47487.4	0.00842465	-0.00362109	0
47557.4	0.00846286	-0.00365032	0
47627.4	0.00846286	-0.00364262	0
47697.4	0.00844375	-0.00361364	0
47767.4	0.00846286	-0.00362192	0
47837.4	0.00842465	-0.00360116	0
47907.4	0.00834823	-0.0035953	0
47977.4	0.00844375	-0.00360479	0
48047.4	0.00848196	-0.00359587	0
48117.4	0.00853928	-0.00357352	0
48187.4	0.00852017	-0.00360116	0
48257.4	0.00846286	-0.00359906	0
48327.4	0.00850107	-0.00357186	0
48397.4	0.00844375	-0.00357568	0
48467.4	0.00855838	-0.00358103	0
48537.4	0.00838644	-0.00356288	0
48607.4	0.00842465	-0.00355454	0
48677.4	0.00846286	-0.00354372	0
48747.4	0.00846286	-0.00353932	0
48817.4	0.00844375	-0.00354282	0
48887.4	0.00848196	-0.00353327	0
48957.4	0.00831002	-0.00352314	0
49027.4	0.00846286	-0.00354301	0
49097.4	0.00840554	-0.00351512	0
49167.4	0.00850107	-0.00351767	0
49237.4	0.00850107	-0.00352028	0
49307.4	0.00832912	-0.00350773	0
49377.4	0.00852017	-0.0034799	0
49447.4	0.00859659	-0.00351378	0
49517.4	0.00846286	-0.00349525	0
49587.4	0.00846286	-0.00348073	0
49657.4	0.00846286	-0.0034778	0
49727.4	0.00836733	-0.00348436	0
49797.4	0.00855838	-0.00345959	0
49867.4	0.00844375	-0.00346373	0
49937.4	0.00848196	-0.00337667	0
50007.4	0.00842465	-0.00339399	0
50077.4	0.00842465	-0.00339775	0
50147.4	0.00836733	-0.00339393	0
50217.4	0.00842465	-0.00339425	0
50287.4	0.00848196	-0.00339495	0
50357.4	0.00836733	-0.00339972	0
50427.4	0.00848196	-0.00339571	0
50497.4	0.00844375	-0.00340717	0
50567.4	0.00850107	-0.00338896	0
50637.4	0.00846286	-0.00338883	0
50707.4	0.00852017	-0.00338807	0
50777.4	0.00850107	-0.0033917	0
50847.4	0.00850107	-0.00336858	0
50917.4	0.00853928	-0.00336852	0
50987.4	0.00855838	-0.00337654	0
51057.4	0.00852017	-0.00334763	0
51127.4	0.00838644	-0.00336744	0
51197.4	0.00853928	-0.00333801	0
51267.4	0.00842465	-0.00336412	0
51337.4	0.00840554	-0.00332954	0
51407.4	0.00844375	-0.0033654	0
51477.4	0.00840554	-0.00332642	0
51547.4	0.00846286	-0.00334336	0
51617.4	0.00842465	-0.00333164	0
51687.4	0.00842465	-0.00331604	0
51757.4	0.00848196	-0.00332209	0
51827.4	0.00840554	-0.00332757	0
51897.4	0.00846286	-0.00330063	0
51967.4	0.00852017	-0.00331534	0
52037.4	0.00842465	-0.00329127	0
52107.4	0.00846286	-0.00330553	0
52177.4	0.00844375	-0.00329089	0
52247.4	0.00836733	-0.0032821	0
52317.4	0.00857749	-0.00329235	0
52387.4	0.00846286	-0.00328318	0
52457.4	0.00844375	-0.00328318	0
52527.4	0.00842465	-0.00328541	0
52597.4	0.00850107	-0.00326146	0
52667.4	0.00852017	-0.00327095	0
52737.4	0.00850107	-0.00326331	0
52807.4	0.00848196	-0.0032542	0
52877.4	0.00844375	-0.00325108	0
52947.4	0.00834823	-0.00326624	0
53017.4	0.00852017	-0.0032486	0
53087.4	0.00842465	-0.0032407	0
53157.4	0.00857749	-0.00324879	0
53227.4	0.00842465	-0.00325815	0
53297.4	0.00840554	-0.00323395	0
53367.4	0.00844375	-0.00324669	0
53437.4	0.00846286	-0.00326401	0
53507.4	0.00840554	-0.0032344	0
53577.4	0.00850107	-0.00324873	0
53647.4	0.00846286	-0.00326866	0
53717.4	0.00848196	-0.00324032	0
53787.4	0.00848196	-0.00322975	0
53857.4	0.00846286	-0.0032095	0
53927.4	0.00848196	-0.00323331	0
53997.4	0.00840554	-0.00321803	0
54067.4	0.00844375	-0.00321485	0
54137.4	0.00838644	-0.00319561	0
54207.4	0.00838644	-0.0031995	0
54277.4	0.00842465	-0.00318982	0
54347.4	0.00844375	-0.00318702	0
54417.4	0.00848196	-0.00317657	0
54487.4	0.00850107	-0.00318631	0
54557.4	0.00844375	-0.00317963	0
54627.4	0.00844375	-0.00318383	0
54697.4	0.00848196	-0.00319778	0
54767.4	0.00842465	-0.00319364	0
54837.4	0.00852017	-0.00317224	0
54907.4	0.00850107	-0.00316345	0
54977.4	0.00844375	-0.00316186	0
55047.4	0.00848196	-0.00315282	0
55117.4	0.00846286	-0.00315466	0
55187.4	0.00838644	-0.00314613	0
55257.4	0.00846286	-0.00315014	0
55327.4	0.00840554	-0.00315333	0
55397.4	0.00850107	-0.0031283	0
55467.4	0.00855838	-0.00313078	0
55537.4	0.00848196	-0.00312486	0
55607.4	0.00840554	-0.00312772	0
55677.4	0.00846286	-0.00313231	0
55747.4	0.00852017	-0.00312136	0
55817.4	0.00844375	-0.0031197	0
55887.4	0.00853928	-0.00311072	0
55957.4	0.00838644	-0.00313435	0
56027.4	0.00844375	-0.00311531	0
56097.4	0.00842465	-0.00311015	0
56167.4	0.00842465	-0.00310091	0
56237.4	0.00842465	-0.00309009	0
56307.4	0.00850107	-0.00310575	0
56377.4	0.00846286	-0.00310346	0
56447.4	0.00844375	-0.00310875	0
56517.4	0.00850107	-0.00309862	0
56587.4	0.00836733	-0.00308187	0
56657.4	0.00852017	-0.00309945	0
56727.4	0.00842465	-0.00307882	0
56797.4	0.00848196	-0.00308977	0
56867.4	0.00848196	-0.00307245	0
56937.4	0.00842465	-0.00306684	0
57007.4	0.00840554	-0.0030699	0
57077.4	0.00848196	-0.0030776	0
57147.4	0.00853928	-0.00305251	0
57217.4	0.00850107	-0.00306869	0
57287.4	0.00844375	-0.00305442	0
57357.4	0.00848196	-0.0030492	0
57427.4	0.00840554	-0.00306449	0
57497.4	0.00848196	-0.00303124	0
57567.4	0.00840554	-0.00305258	0
57637.4	0.00853928	-0.00301379	0
57707.4	0.00844375	-0.00302398	0
57777.4	0.00842465	-0.00304092	0
57847.4	0.00844375	-0.00302545	0
57917.4	0.00852017	-0.00299743	0
57987.4	0.00846286	-0.00302468	0
58057.4	0.00838644	-0.00301787	0
58127.4	0.00846286	-0.00301023	0
58197.4	0.00850107	-0.00301182	0
58267.4	0.00846286	-0.00300481	0
58337.4	0.00840554	-0.00299029	0
58407.4	0.00838644	-0.00298825	0
58477.4	0.00844375	-0.00299157	0
58547.4	0.00842465	-0.0029908	0
58617.4	0.00842465	-0.00298717	0
58687.4	0.00844375	-0.00300634	0
58757.4	0.00836733	-0.0029738	0
58827.4	0.00846286	-0.00296985	0
58897.4	0.00846286	-0.00296399	0
58967.4	0.00852017	-0.00295234	0
59037.4	0.00848196	-0.00290973	0
59107.4	0.00852017	-0.00290183	0
59177.4	0.00842465	-0.00294011	0
59247.4	0.00836733	-0.00291604	0
59317.4	0.00850107	-0.00290476	0
59387.4	0.00842465	-0.00292775	0
59457.4	0.00844375	-0.002921	0
59527.4	0.00846286	-0.00290368	0
59597.4	0.00850107	-0.00291572	0
59667.4	0.00848196	-0.0029054	0
59737.4	0.00844375	-0.00291795	0
59807.4	0.00846286	-0.00292992	0
59877.4	0.00848196	-0.0028984	0
59947.4	0.00844375	-0.00288929	0
60017.4	0.00850107	-0.00291737	0
60087.4	0.00848196	-0.00291222	0
60157.4	0.00844375	-0.0028961	0
60227.4	0.00838644	-0.00291635	0
60297.4	0.00846286	-0.0029219	0
60367.4	0.00842465	-0.00292393	0
60437.4	0.00844375	-0.00290559	0
60507.4	0.00846286	-0.00289056	0
60577.4	0.00842465	-0.00288286	0
60647.4	0.00842465	-0.00288534	0
60717.4	0.00848196	-0.00287649	0
60787.4	0.00842465	-0.00287712	0
60857.4	0.00848196	-0.00289394	0
60927.4	0.00855838	-0.00288209	0
60997.4	0.00852017	-0.00287432	0
61067.4	0.00850107	-0.00287923	0
61137.4	0.00848196	-0.00286572	0
61207.4	0.00838644	-0.00287279	0
61277.4	0.00836733	-0.00287241	0
61347.4	0.00855838	-0.00286706	0
61417.4	0.00855838	-0.00284592	0
61487.4	0.00848196	-0.0028556	0
61557.4	0.00852017	-0.00283102	0
61627.4	0.00857749	-0.00282834	0
61697.4	0.00840554	-0.0028384	0
61767.4	0.00848196	-0.00284038	0
61837.4	0.00844375	-0.00287082	0
61907.4	0.00844375	-0.00285643	0
61977.4	0.00844375	-0.00284261	0
62047.4	0.00848196	-0.0028391	0
62117.4	0.00844375	-0.00283567	0
62187.4	0.00838644	-0.00284929	0
62257.4	0.00852017	-0.00281694	0
62327.4	0.00852017	-0.0028328	0
62397.4	0.00848196	-0.00283267	0
62467.4	0.00853928	-0.0028293	0
62537.4	0.00844375	-0.00282554	0
62607.4	0.00840554	-0.00282019	0
62677.4	0.00852017	-0.00281439	0
62747.4	0.00840554	-0.00282681	0
62817.4	0.00834823	-0.00281465	0
62887.4	0.00842465	-0.00281904	0
62957.4	0.00848196	-0.00279816	0
63027.4	0.00844375	-0.00279879	0
63097.4	0.00853928	-0.00281064	0
63167.4	0.00848196	-0.00279567	0
63237.4	0.00848196	-0.00280968	0
63307.4	0.00848196	-0.00280452	0
63377.4	0.00850107	-0.00279542	0
63447.4	0.00840554	-0.00280166	0
63517.4	0.00852017	-0.00282783	0
63587.4	0.00842465	-0.00281287	0
63657.4	0.00844375	-0.00279917	0
63727.4	0.00844375	-0.00278529	0
63797.4	0.00844375	-0.00278701	0
63867.4	0.00848196	-0.00279357	0
63937.4	0.00834823	-0.00278529	0
64007.4	0.00850107	-0.00278676	0
64077.4	0.00855838	-0.00276943	0
64147.4	0.00848196	-0.00276714	0
64217.4	0.00852017	-0.00277128	0
64287.4	0.00850107	-0.00278172	0
64357.4	0.00838644	-0.00277268	0
64427.4	0.00857749	-0.00275912	0
64497.4	0.00846286	-0.00276606	0
64567.4	0.00853928	-0.00276682	0
64637.4	0.00850107	-0.00276014	0
64707.4	0.00850107	-0.00277357	0
64777.4	0.00852017	-0.00274988	0
64847.4	0.00848196	-0.002743	0
64917.4	0.00848196	-0.00275281	0
64987.4	0.00848196	-0.00275491	0
65057.4	0.00855838	-0.00274574	0
65127.4	0.00853928	-0.0027502	0
65197.4	0.00852017	-0.00276103	0
65267.4	0.00853928	-0.00274249	0
65337.4	0.00842465	-0.00273192	0
65407.4	0.00855838	-0.00274778	0
65477.4	0.00846286	-0.00274409	0
65547.4	0.00850107	-0.00272651	0
65617.4	0.00846286	-0.00273084	0
65687.4	0.00844375	-0.0027195	0
65757.4	0.00850107	-0.002743	0
65827.4	0.00852017	-0.00274791	0
65897.4	0.00842465	-0.00275205	0
65967.4	0.00846286	-0.00284815	0
66037.4	0.00853928	-0.00273804	0
66107.4	0.00855838	-0.0027339	0
66177.4	0.00852017	-0.00273084	0
66247.4	0.00852017	-0.0027146	0
66317.4	0.00846286	-0.00270613	0
66387.4	0.00846286	-0.00270619	0
66457.4	0.00853928	-0.0027025	0
66527.4	0.00846286	-0.00270339	0
66597.4	0.00848196	-0.0026969	0
66667.4	0.00848196	-0.00268581	0
66737.4	0.00850107	-0.00269237	0
66807.4	0.00850107	-0.00267696	0
66877.4	0.00852017	-0.00267161	0
66947.4	0.00836733	-0.00267798	0
67017.4	0.00848196	-0.00267047	0
67087.4	0.00850107	-0.00268365	0
67157.4	0.00850107	-0.00267862	0
67227.4	0.00852017	-0.0026876	0
67297.4	0.00842465	-0.00266722	0
67367.4	0.00844375	-0.00266537	0
67437.4	0.00850107	-0.00270276	0
67507.5	0.00848196	-0.00269295	0
67577.5	0.00846286	-0.00268849	0
67647.5	0.00844375	-0.00268276	0
67717.5	0.00852017	-0.00265709	0
67787.5	0.00836733	-0.00267792	0
67857.5	0.00852017	-0.00267926	0
67927.5	0.00844375	-0.00266282	0
67997.5	0.00852017	-0.00266703	0
68067.5	0.00844375	-0.00266531	0
68137.5	0.00848196	-0.00266607	0
68207.5	0.00844375	-0.00266002	0
68277.5	0.00852017	-0.00265429	0
68347.5	0.00857749	-0.00267824	0
68417.5	0.00846286	-0.0026634	0
68487.5	0.00840554	-0.00265531	0
68557.5	0.00848196	-0.00265939	0
68627.5	0.00844375	-0.00265448	0
68697.5	0.00848196	-0.00266595	0
68767.5	0.00848196	-0.00267072	0
68837.5	0.00844375	-0.00267849	0
68907.5	0.00846286	-0.00266372	0
68977.5	0.00855838	-0.00266569	0
69047.5	0.00846286	-0.00266397	0
69117.5	0.00848196	-0.00265544	0
69187.5	0.00857749	-0.00266499	0
69257.5	0.00836733	-0.00266913	0
69327.5	0.00842465	-0.0026648	0
69397.5	0.00846286	-0.00265378	0
69467.5	0.00852017	-0.00267308	0
69537.5	0.00840554	-0.0026569	0
69607.5	0.00852017	-0.00265092	0
69677.5	0.00848196	-0.00266766	0
69747.5	0.00852017	-0.00266894	0
69817.5	0.00852017	-0.00266926	0
69887.5	0.00852017	-0.00273313	0
69957.5	0.00852017	-0.00272447	0
70027.5	0.00844375	-0.00268868	0
70097.5	0.00853928	-0.00268543	0
70167.5	0.00852017	-0.00270384	0
70237.5	0.00846286	-0.00267938	0
70307.5	0.00850107	-0.00268429	0
70377.5	0.00846286	-0.00269588	0
70447.5	0.00852017	-0.00267983	0
70517.5	0.00850107	-0.00267422	0
70587.5	0.00850107	-0.00267543	0
70657.5	0.00850107	-0.00267448	0
70727.5	0.00848196	-0.00267244	0
70797.5	0.00842465	-0.00269269	0
70867.5	0.00846286	-0.00266907	0
70937.5	0.00848196	-0.00266951	0
71007.5	0.00836733	-0.00268047	0
71077.5	0.00852017	-0.00268817	0
71147.5	0.00842465	-0.00268097	0
71217.5	0.00852017	-0.00265448	0
71287.5	0.00850107	-0.00266741	0
71357.5	0.00855838	-0.00264792	0
71427.5	0.00840554	-0.00266021	0
71497.5	0.00844375	-0.00265888	0
71567.5	0.00855838	-0.00266951	0
71637.5	0.00853928	-0.00266556	0
71707.5	0.00846286	-0.00265576	0
71777.5	0.00844375	-0.00264104	0
71847.5	0.00844375	-0.00263423	0
71917.5	0.00850107	-0.00263334	0
71987.5	0.00844375	-0.00264709	0
72057.5	0.00848196	-0.00262786	0
72127.5	0.00846286	-0.00263531	0
72197.5	0.00846286	-0.00262684	0
72267.5	0.00852017	-0.00264601	0
72337.5	0.00848196	-0.00261748	0
72407.5	0.00852017	-0.00264499	0
72477.5	0.00859659	-0.00264111	0
72547.6	0.00852017	-0.0026264	0
72617.6	0.00838644	-0.00263996	0
72687.6	0.00838644	-0.00261143	0
72757.6	0.00846286	-0.00265162	0
72827.6	0.00852017	-0.00262691	0
72897.6	0.00850107	-0.0026278	0
72967.6	0.00848196	-0.00260818	0
73037.6	0.00850107	-0.00263162	0
73107.6	0.00850107	-0.00261181	0
73177.6	0.00852017	-0.0026057	0
73247.6	0.00840554	-0.00261761	0
73317.6	0.00853928	-0.00262258	0
73387.6	0.00842465	-0.00261009	0
73457.6	0.00848196	-0.00258933	0
73527.6	0.00852017	-0.00259634	0
73597.6	0.00850107	-0.0025864	0
73667.6	0.00842465	-0.00259914	0
73737.6	0.00850107	-0.00259424	0
73807.6	0.00852017	-0.00259545	0
73877.6	0.00852017	-0.00260455	0
73947.6	0.00853928	-0.00258704	0
74017.6	0.00855838	-0.00258844	0
74087.6	0.00855838	-0.00257978	0
74157.6	0.00852017	-0.00258093	0
74227.6	0.00852017	-0.00258322	0
74297.6	0.00848196	-0.00258933	0
74367.6	0.00834823	-0.00258965	0
74437.6	0.00850107	-0.00258303	0
74507.6	0.00848196	-0.00256188	0
74577.6	0.00846286	-0.00256494	0
74647.6	0.00844375	-0.00255424	0
74717.6	0.00842465	-0.0025687	0
74787.6	0.00850107	-0.00256825	0
74857.6	0.00844375	-0.00255972	0
74927.6	0.00846286	-0.00256055	0
74997.6	0.00846286	-0.00254743	0
75067.6	0.00855838	-0.0025587	0
75137.6	0.00853928	-0.00255093	0
75207.6	0.00853928	-0.00253463	0
75277.6	0.00852017	-0.00255169	0
75347.6	0.00850107	-0.00254787	0
75417.6	0.00842465	-0.00252819	0
75487.6	0.00850107	-0.00254876	0
75557.6	0.00846286	-0.00253902	0
75627.6	0.00846286	-0.00252991	0
75697.6	0.00846286	-0.00252692	0
75767.6	0.00850107	-0.0025145	0
75837.6	0.00852017	-0.00253284	0
75907.6	0.00846286	-0.00250915	0
75977.6	0.00853928	-0.00253883	0
76047.6	0.00850107	-0.00253902	0
76117.6	0.00846286	-0.00254106	0
76187.6	0.00848196	-0.00251871	0
76257.6	0.00842465	-0.0025259	0
76327.6	0.00844375	-0.00251826	0
76397.6	0.00842465	-0.00251877	0
76467.6	0.00842465	-0.00249712	0
76537.6	0.00840554	-0.00252386	0
76607.6	0.00848196	-0.0025217	0
76677.6	0.00842465	-0.00250005	0
76747.6	0.00855838	-0.00251157	0
76817.6	0.00842465	-0.00249419	0
76887.6	0.00848196	-0.00251431	0
76957.6	0.00852017	-0.00249947	0
77027.6	0.00846286	-0.00251361	0
77097.6	0.00844375	-0.00250266	0
77167.6	0.00867301	-0.00250661	0
77237.6	0.00852017	-0.00249075	0
77307.6	0.00850107	-0.00250527	0
77377.6	0.00842465	-0.00249864	0
77447.6	0.00842465	-0.00249164	0
77517.6	0.00840554	-0.00248432	0
77587.7	0.00850107	-0.00249903	0
77657.7	0.00848196	-0.00247285	0
77727.7	0.00834823	-0.0024789	0
77797.7	0.00855838	-0.00247476	0
77867.7	0.00852017	-0.00247253	0
77937.7	0.00838644	-0.00246464	0
78007.7	0.00848196	-0.00250317	0
78077.7	0.00848196	-0.00248871	0
78147.7	0.00840554	-0.00249107	0
78217.7	0.00850107	-0.00245107	0
78287.7	0.00850107	-0.00247515	0
78357.7	0.00859659	-0.00246534	0
78427.7	0.00853928	-0.00244521	0
78497.7	0.00848196	-0.00248973	0
78567.7	0.00842465	-0.0024461	0
78637.7	0.00852017	-0.00244388	0
78707.7	0.00852017	-0.00247349	0
78777.7	0.00853928	-0.00249807	0
78847.7	0.00852017	-0.00246024	0
78917.7	0.00850107	-0.00246266	0
78987.7	0.00848196	-0.00249444	0
79057.7	0.00850107	-0.00246285	0
79127.7	0.00853928	-0.00246031	0
79197.7	0.00838644	-0.00247527	0
79267.7	0.00846286	-0.00244394	0
79337.7	0.00852017	-0.00242999	0
79407.7	0.00844375	-0.00246712	0
79477.7	0.00846286	-0.00248979	0
79547.7	0.00852017	-0.0024705	0
79617.7	0.00850107	-0.00247107	0
79687.7	0.00846286	-0.00246801	0
79757.7	0.00852017	-0.00245305	0
79827.7	0.00844375	-0.00247304	0
79897.7	0.00844375	-0.00248693	0
79967.7	0.00846286	-0.00246642	0
80037.7	0.00852017	-0.00243872	0
80107.7	0.00850107	-0.00245254	0
80177.7	0.00852017	-0.0024554	0
80247.7	0.00846286	-0.00244617	0
80317.7	0.00846286	-0.0024698	0
80387.7	0.00852017	-0.00246254	0
80457.7	0.00850107	-0.00247827	0
80527.7	0.00852017	-0.00245254	0
80597.7	0.00850107	-0.00247349	0
80667.7	0.00850107	-0.00245757	0
80737.7	0.00838644	-0.00245349	0
80807.7	0.00853928	-0.00245897	0
80877.7	0.00848196	-0.00246228	0
80947.7	0.00846286	-0.00246088	0
81017.7	0.00850107	-0.00244789	0
81087.7	0.00848196	-0.00244827	0
81157.7	0.00853928	-0.00244088	0
81227.7	0.00853928	-0.00243725	0
81297.7	0.00836733	-0.00243725	0
81367.7	0.00850107	-0.00243324	0
81437.7	0.00846286	-0.00243521	0
81507.7	0.00850107	-0.00245305	0
81577.7	0.00846286	-0.00244445	0
81647.7	0.00852017	-0.00243935	0
81717.7	0.00842465	-0.00242464	0
81787.7	0.00848196	-0.00243515	0
81857.7	0.00850107	-0.00244795	0
81927.7	0.00846286	-0.00243942	0
81997.7	0.00842465	-0.00242534	0
82067.7	0.00844375	-0.00242776	0
82137.7	0.00842465	-0.00245037	0
82207.7	0.00850107	-0.00244604	0
82277.7	0.00852017	-0.00243942	0
82347.7	0.00844375	-0.00244961	0
82417.7	0.00852017	-0.00243955	0
82487.7	0.00848196	-0.00244502	0
82557.7	0.00857749	-0.00242636	0
82627.8	0.00852017	-0.00242006	0
82697.8	0.00842465	-0.00242827	0
82767.8	0.00848196	-0.00243483	0
82837.8	0.00842465	-0.00243802	0
82907.8	0.00850107	-0.00244196	0
82977.8	0.00852017	-0.00241655	0
83047.8	0.00852017	-0.00242203	0
83117.8	0.00855838	-0.002444	0
83187.8	0.00852017	-0.0024263	0
83257.8	0.00853928	-0.00242165	0
83327.8	0.00838644	-0.00242031	0
83397.8	0.00852017	-0.00240815	0
83467.8	0.00850107	-0.00242738	0
83537.8	0.00852017	-0.00241452	0
83607.8	0.00846286	-0.00241751	0
83677.8	0.00852017	-0.00243146	0
83747.8	0.00850107	-0.00241388	0
83817.8	0.00855838	-0.00239917	0
83887.8	0.00853928	-0.00241713	0
83957.8	0.00842465	-0.00241541	0
84027.8	0.00857749	-0.00241471	0
84097.8	0.00844375	-0.00240235	0
84167.8	0.00846286	-0.00239656	0
84237.8	0.00840554	-0.00239917	0
84307.8	0.00850107	-0.00241331	0
84377.8	0.00848196	-0.00239433	0
84447.8	0.00853928	-0.00239407	0
84517.8	0.00852017	-0.00241076	0
84587.8	0.00852017	-0.00239013	0
84657.8	0.00844375	-0.00239153	0
84727.8	0.00838644	-0.00238108	0
84797.8	0.00846286	-0.00238535	0
84867.8	0.00855838	-0.00238344	0
84937.8	0.00850107	-0.00238751	0
85007.8	0.00857749	-0.00238229	0
85077.8	0.00855838	-0.00236917	0
85147.8	0.00848196	-0.0023751	0
85217.8	0.00852017	-0.00237293	0
85287.8	0.00842465	-0.00236771	0
85357.8	0.00846286	-0.00238191	0
85427.8	0.00840554	-0.0023586	0
85497.8	0.00846286	-0.00237395	0
85567.8	0.00844375	-0.00235249	0
85637.8	0.00840554	-0.00237312	0
85707.8	0.00846286	-0.00235389	0
85777.8	0.00848196	-0.00236898	0
85847.8	0.00848196	-0.00235631	0
85917.8	0.00842465	-0.00234319	0
85987.8	0.00850107	-0.0023451	0
86057.8	0.00852017	-0.00234414	0
86127.8	0.00853928	-0.00232937	0
86197.8	0.00859659	-0.00234994	0
86267.8	0.00842465	-0.00236319	0
86337.8	0.00846286	-0.00234485	0
86407.8	0.0086348	-0.00232854	0
86477.8	0.00850107	-0.00233466	0
86547.8	0.00850107	-0.00233128	0
86617.8	0.00848196	-0.00233625	0
86687.8	0.00844375	-0.0023365	0
86757.8	0.00846286	-0.0023386	0
86827.8	0.00853928	-0.00234306	0
86897.8	0.00853928	-0.00232236	0
86967.8	0.00850107	-0.0023137	0
87037.8	0.00852017	-0.00233064	0
87107.8	0.00853928	-0.00231905	0
87177.8	0.00842465	-0.00232568	0
87247.8	0.00857749	-0.00230109	0
87317.8	0.00842465	-0.00230288	0
87387.8	0.00859659	-0.00231523	0
87457.8	0.00850107	-0.00232434	0
87527.8	0.00855838	-0.00231135	0
87597.8	0.00850107	-0.00229422	0
87667.8	0.00850107	-0.00228836	0
87737.9	0.00844375	-0.00230491	0
87807.9	0.00853928	-0.00230562	0
87877.9	0.00846286	-0.0022953	0
87947.9	0.00848196	-0.00228479	0
88017.9	0.00838644	-0.00229746	0
88087.9	0.0086157	-0.00228747	0
88157.9	0.00855838	-0.00228899	0
88227.9	0.00846286	-0.00229957	0
88297.9	0.00846286	-0.00229676	0
88367.9	0.00842465	-0.0023002	0
88437.9	0.00848196	-0.00228167	0
88507.9	0.00852017	-0.00227708	0
88577.9	0.00848196	-0.00229097	0
88647.9	0.00850107	-0.00228027	0
88717.9	0.00844375	-0.00227556	0
88787.9	0.00838644	-0.00227428	0
88857.9	0.00850107	-0.00230128	0
88927.9	0.00848196	-0.00227651	0
88997.9	0.00850107	-0.00228071	0
89067.9	0.00848196	-0.00226148	0
89137.9	0.00857749	-0.00227524	0
89207.9	0.00842465	-0.00227282	0
89277.9	0.00855838	-0.00225645	0
89347.9	0.00852017	-0.00227212	0
89417.9	0.00848196	-0.00225104	0
89487.9	0.00844375	-0.00227237	0
89557.9	0.00853928	-0.00227708	0
89627.9	0.00850107	-0.00226543	0
89697.9	0.00855838	-0.00225384	0
89767.9	0.00859659	-0.00224747	0
89837.9	0.00852017	-0.00224658	0
89907.9	0.00848196	-0.00225792	0
89977.9	0.00846286	-0.00225518	0
90047.9	0.00853928	-0.00223887	0
90117.9	0.00850107	-0.00224161	0
90187.9	0.00846286	-0.00225015	0
90257.9	0.00846286	-0.00223696	0
90327.9	0.00853928	-0.00223346	0
90397.9	0.00852017	-0.00225199	0
90467.9	0.00842465	-0.00224333	0
90537.9	0.00859659	-0.00224843	0
90607.9	0.00848196	-0.0022462	0
90677.9	0.00850107	-0.00223932	0
90747.9	0.00852017	-0.00223792	0
90817.9	0.00853928	-0.00221964	0
90887.9	0.0086157	-0.00224066	0
90957.9	0.00844375	-0.00222149	0
91027.9	0.00844375	-0.0022227	0
91097.9	0.00848196	-0.00223289	0
91167.9	0.00848196	-0.00222448	0
91237.9	0.00852017	-0.0022078	0
91307.9	0.00842465	-0.00221697	0
91377.9	0.00850107	-0.00221627	0
91447.9	0.00852017	-0.00222397	0
91517.9	0.00848196	-0.00222448	0
91587.9	0.00850107	-0.00223091	0
91657.9	0.00844375	-0.00222461	0
91727.9	0.00852017	-0.00222429	0
91797.9	0.00848196	-0.00222652	0
91867.9	0.00844375	-0.00221474	0
91937.9	0.00848196	-0.00219939	0
92007.9	0.00846286	-0.002202	0
92077.9	0.00846286	-0.00221174	0
92147.9	0.00850107	-0.00219901	0
92217.9	0.00846286	-0.00219996	0
92287.9	0.00850107	-0.00220034	0
92357.9	0.00844375	-0.00220461	0
92427.9	0.00848196	-0.0021948	0
92497.9	0.00846286	-0.00221295	0
92567.9	0.00850107	-0.00220397	0
92637.9	0.00853928	-0.00219066	0
92707.9	0.00850107	-0.00220385	0
92778	0.00852017	-0.00220194	0
92848	0.00848196	-0.00220875	0
92918	0.00853928	-0.00218054	0
92988	0.00853928	-0.00218703	0
93058	0.00844375	-0.00217512	0
93128	0.00838644	-0.00219722	0
93198	0.00840554	-0.002192	0
93268	0.00850107	-0.00219035	0
93338	0.00855838	-0.00218213	0
93408	0.00850107	-0.00216181	0
93478	0.00855838	-0.00218723	0
93548	0.0086157	-0.00218551	0
93618	0.00848196	-0.00218659	0
93688	0.00852017	-0.00216799	0
93758	0.00848196	-0.00216723	0
93828	0.00848196	-0.00216258	0
93898	0.00846286	-0.00217901	0
93968	0.00846286	-0.0021615	0
94038	0.00855838	-0.00216494	0
94108	0.00848196	-0.00217143	0
94178	0.00846286	-0.00216175	0
94248	0.00850107	-0.00217423	0
94318	0.00846286	-0.00215768	0
94388	0.00850107	-0.00215042	0
94458	0.00852017	-0.0021643	0
94528	0.00853928	-0.00216385	0
94598	0.00840554	-0.00216831	0
94668	0.00846286	-0.00214577	0
94738	0.00848196	-0.00216283	0
94808	0.00859659	-0.00214118	0
94878	0.00852017	-0.00215303	0
94948	0.00842465	-0.00213144	0
95018	0.00846286	-0.00213838	0
95088	0.00852017	-0.0021429	0
95158	0.00850107	-0.00214819	0
95228	0.00855838	-0.00214003	0
95298	0.00853928	-0.00213781	0
95368	0.00855838	-0.00215118	0
95438	0.00848196	-0.00211341	0
95508	0.00844375	-0.00212615	0
95578	0.00848196	-0.00213169	0
95648	0.00852017	-0.00214405	0
95718	0.00850107	-0.00213621	0
95788	0.00846286	-0.00211895	0
95858	0.00852017	-0.00213093	0
95928	0.00838644	-0.00212252	0
95998	0.00850107	-0.0021145	0
96068	0.00842465	-0.00209775	0
96138	0.00848196	-0.00213347	0
96208	0.00848196	-0.00211634	0
96278	0.00832912	-0.00209488	0
96348	0.00852017	-0.0021087	0
96418	0.00850107	-0.00210705	0
96488	0.00852017	-0.00211411	0
96558	0.00848196	-0.00209182	0
96628	0.00850107	-0.00210902	0
96698	0.00852017	-0.00211736	0
96768	0.00855838	-0.00209749	0
96838	0.00850107	-0.00209539	0
96908	0.00848196	-0.00208189	0
96978	0.00850107	-0.00208609	0
97048	0.00846286	-0.00209667	0
97118	0.00855838	-0.0020994	0
97188	0.00848196	-0.00209488	0
97258	0.00852017	-0.00209399	0
97328	0.00846286	-0.00207399	0
97398	0.00859659	-0.00207877	0
97468	0.00846286	-0.00207062	0
97538	0.00853928	-0.00207278	0
97608	0.00846286	-0.00207374	0
97678	0.00852017	-0.00206915	0
97709.7	0.00842465	-0.00197019	0