File: EXPERIMENTAL/Data/Battery-cycling/JP-measurements/T-cell/2024-04-22_JP-A1_T-cell_Li-Cu_1-mm-PP-spacer_75muL-4MLiFSI-DME_inside-glovebox_added-OCV-0.1s_02_MB_C05.txt
time/s	Ewe/V	I/mA	error
60.053	3.00013	-0.0250364	0
60.1644	0.00838644	-6.19381	0
60.1942	0.00840554	-5.2389	0
60.237	0.00842465	-4.29591	0
60.3028	0.00844375	-3.37178	0
60.4202	0.00840554	-2.45458	0
60.7224	0.00840554	-1.54745	0
62.4476	0.00838644	-0.643063	0
157.755	0.00853928	-0.106353	0
337.755	0.00842465	-0.0725094	0
517.755	0.00832912	-0.0602138	0
697.755	0.00840554	-0.0528147	0
877.755	0.00848196	-0.0477016	0
1057.75	0.00846286	-0.0441616	0
1237.75	0.00855838	-0.0412998	0
1417.75	0.00838644	-0.0384145	0
1597.75	0.00842465	-0.0363262	0
1777.75	0.00846286	-0.0345461	0
1957.75	0.00846286	-0.0329265	0
2137.75	0.00857749	-0.0315627	0
2317.75	0.00838644	-0.030213	0
2497.75	0.00844375	-0.0292026	0
2677.75	0.00846286	-0.0282476	0
2857.75	0.00834823	-0.0273022	0
3037.75	0.00857749	-0.026388	0
3217.75	0.00846286	-0.0255399	0
3397.75	0.00852017	-0.0248071	0
3577.75	0.00853928	-0.0241074	0
3757.75	0.00846286	-0.0234536	0
3937.75	0.00842465	-0.0228615	0
4117.75	0.00844375	-0.0222866	0
4297.75	0.00853928	-0.0217429	0
4477.75	0.00853928	-0.0212151	0
4657.75	0.00846286	-0.0206777	0
4837.75	0.00850107	-0.020106	0
5017.75	0.00850107	-0.0197049	0
5197.75	0.00852017	-0.019265	0
5377.75	0.00844375	-0.0188423	0
5557.75	0.00842465	-0.0184711	0
5737.75	0.00842465	-0.0181375	0
5917.75	0.00850107	-0.0177587	0
6097.75	0.00844375	-0.0174906	0
6277.75	0.00852017	-0.0171825	0
6457.75	0.00855838	-0.0168387	0
6637.75	0.00838644	-0.0165885	0
6817.75	0.00844375	-0.0159454	0
6997.75	0.00844375	-0.015736	0
7177.75	0.00852017	-0.0154851	0
7357.75	0.00850107	-0.0151942	0
7537.75	0.00834823	-0.0150026	0
7717.75	0.00852017	-0.0147555	0
7897.75	0.00842465	-0.0145257	0
8077.75	0.00848196	-0.0143372	0
8257.75	0.00836733	-0.0141513	0
8437.75	0.00853928	-0.013917	0
8617.75	0.00853928	-0.0141857	0
8797.75	0.00842465	-0.0139756	0
8977.75	0.00838644	-0.0138547	0
9157.75	0.0082527	-0.0136185	0
9337.75	0.00846286	-0.0133943	0
9517.75	0.00852017	-0.0132174	0
9697.75	0.00852017	-0.0130938	0
9877.75	0.00855838	-0.0128831	0
10057.8	0.00850107	-0.0127698	0
10237.8	0.00855838	-0.0126004	0
10417.8	0.00852017	-0.0123884	0
10597.8	0.00850107	-0.0122751	0
10777.8	0.00840554	-0.0120981	0
10957.8	0.00848196	-0.0120052	0
11137.8	0.00840554	-0.0118829	0
11317.8	0.00844375	-0.0117448	0
11497.8	0.00844375	-0.0115646	0
11677.8	0.00848196	-0.011436	0
11857.8	0.00842465	-0.0113004	0
12037.8	0.00842465	-0.0111839	0
12217.8	0.00855838	-0.0110712	0
12397.8	0.00855838	-0.0109324	0
12577.8	0.00842465	-0.0108382	0
12757.8	0.00842465	-0.0107936	0
12937.8	0.00844375	-0.0106242	0
13117.8	0.00842465	-0.0104937	0
13297.8	0.00848196	-0.0104485	0
13477.8	0.00855838	-0.0103371	0
13657.8	0.00850107	-0.0102601	0
13837.8	0.00853928	-0.0101327	0
14017.8	0.00846286	-0.0100519	0
14197.8	0.00855838	-0.00992391	0
14377.8	0.00842465	-0.00991181	0
14557.8	0.00836733	-0.00980613	0
14737.8	0.00842465	-0.00967306	0
14917.8	0.00846286	-0.00961194	0
15097.8	0.00850107	-0.00948843	0
15277.8	0.00844375	-0.00950244	0
15457.8	0.00842465	-0.00937829	0
15637.8	0.00838644	-0.00931144	0
15817.8	0.00840554	-0.00920448	0
15997.8	0.00848196	-0.00918156	0
16177.8	0.00850107	-0.00910898	0
16357.8	0.00836733	-0.00904532	0
16537.8	0.00844375	-0.00900075	0
16717.8	0.00840554	-0.00884986	0
16897.8	0.00844375	-0.00878174	0
17077.8	0.00838644	-0.00872444	0
17257.8	0.00844375	-0.00863722	0
17437.8	0.00832912	-0.00861111	0
17617.8	0.00840554	-0.00854108	0
17797.8	0.00840554	-0.00849269	0
17977.8	0.00848196	-0.00843858	0
18157.8	0.00846286	-0.00840738	0
18337.8	0.00844375	-0.00827559	0
18517.8	0.00859659	-0.00826413	0
18697.8	0.00850107	-0.00817946	0
18877.8	0.00838644	-0.00821065	0
19057.8	0.00846286	-0.00809987	0
19237.8	0.00840554	-0.00807186	0
19417.8	0.00857749	-0.00801711	0
19597.8	0.00840554	-0.00801202	0
19777.8	0.00846286	-0.00792161	0
19957.8	0.00840554	-0.00788341	0
20137.8	0.00844375	-0.00777518	0
20317.8	0.00852017	-0.00779746	0
20497.8	0.00846286	-0.0077166	0
20677.8	0.00834823	-0.00765294	0
20857.8	0.00846286	-0.00765803	0
21037.8	0.00844375	-0.00754471	0
21217.8	0.00846286	-0.00749123	0
21397.8	0.00844375	-0.00751542	0
21577.8	0.00846286	-0.0074021	0
21757.8	0.00848196	-0.00739064	0
21937.8	0.00842465	-0.00735307	0
22117.8	0.00846286	-0.00724675	0
22297.8	0.00859659	-0.00731105	0
22477.8	0.00844375	-0.00720982	0
22657.8	0.00836733	-0.00716844	0
22837.8	0.00842465	-0.00717481	0
23017.8	0.00848196	-0.00709331	0
23197.8	0.00848196	-0.00704556	0
23377.8	0.00857749	-0.00702519	0
23557.8	0.00852017	-0.00693542	0
23737.8	0.00836733	-0.00686284	0
23917.8	0.00850107	-0.00692205	0
24097.8	0.00852017	-0.00679217	0
24277.8	0.00846286	-0.00677944	0
24457.8	0.00852017	-0.00673615	0
24637.8	0.00848196	-0.00667439	0
24817.8	0.00838644	-0.00667185	0
24997.8	0.00838644	-0.00661773	0
25177.8	0.00840554	-0.00659736	0
25357.8	0.00842465	-0.00653624	0
25537.8	0.00855838	-0.00650568	0
25717.8	0.00844375	-0.00639362	0
25897.8	0.00852017	-0.0063828	0
26077.8	0.00848196	-0.00634078	0
26257.8	0.00846286	-0.00634842	0
26437.8	0.00852017	-0.00631595	0
26617.8	0.00846286	-0.00624401	0
26797.8	0.00848196	-0.00619944	0
26977.8	0.00842465	-0.00614469	0
27157.8	0.00834823	-0.00617016	0
27337.8	0.00850107	-0.00604601	0
27517.8	0.00844375	-0.00609567	0
27697.8	0.00848196	-0.00605174	0
27877.8	0.00844375	-0.00595115	0
28057.8	0.00842465	-0.00597598	0
28237.8	0.00848196	-0.00595879	0
28417.8	0.00840554	-0.00585819	0
28597.8	0.00840554	-0.00583655	0
28777.8	0.00852017	-0.00583209	0
28957.8	0.00850107	-0.00574487	0
29137.8	0.00834823	-0.00572959	0
29317.8	0.00844375	-0.00572004	0
29497.8	0.00844375	-0.00563409	0
29677.8	0.00844375	-0.00560226	0
29857.8	0.00852017	-0.00555705	0
30037.8	0.00859659	-0.00551885	0
30217.8	0.00842465	-0.00550676	0
30397.8	0.00855838	-0.0054953	0
30577.8	0.00846286	-0.00539343	0
30757.8	0.00857749	-0.00538643	0
30937.8	0.00855838	-0.00538324	0
31117.8	0.00853928	-0.00533995	0
31297.8	0.00848196	-0.00530557	0
31477.8	0.00846286	-0.00525018	0
31657.8	0.00846286	-0.00526164	0
31837.8	0.00829091	-0.00521707	0
32017.8	0.00829091	-0.00513495	0
32197.8	0.00844375	-0.00520243	0
32377.8	0.00846286	-0.0051063	0
32557.8	0.00850107	-0.00508847	0
32737.8	0.00846286	-0.00507892	0
32917.8	0.00844375	-0.00504518	0
33097.8	0.00840554	-0.00498979	0
33277.8	0.00836733	-0.00498024	0
33457.8	0.00846286	-0.00496687	0
33637.8	0.00844375	-0.00490511	0
33817.8	0.00838644	-0.0048911	0
33997.8	0.00852017	-0.00480961	0
34177.8	0.00836733	-0.00482489	0
34357.8	0.00852017	-0.00474977	0
34537.8	0.00838644	-0.00476505	0
34717.8	0.00836733	-0.00475295	0
34897.8	0.0086157	-0.00474022	0
35077.8	0.00844375	-0.00466382	0
35257.8	0.00855838	-0.00467082	0
35437.8	0.00836733	-0.0046027	0
35617.8	0.00850107	-0.00460015	0
35797.8	0.00834823	-0.00458551	0
35977.8	0.00842465	-0.00454476	0
36157.8	0.00842465	-0.00452975	0
36337.8	0.00848196	-0.00454421	0
36517.8	0.00844375	-0.00449587	0
36697.8	0.00852017	-0.00447549	0
36877.8	0.00836733	-0.00443836	0
37057.8	0.00842465	-0.00441709	0
37237.8	0.00840554	-0.00444339	0
37417.8	0.00846286	-0.00440302	0
37597.8	0.00838644	-0.00435863	0
37777.8	0.00842465	-0.00435188	0
37957.8	0.00842465	-0.00428488	0
38137.8	0.00844375	-0.00427845	0
38317.8	0.00846286	-0.00428042	0
38497.8	0.00842465	-0.0042061	0
38677.8	0.00846286	-0.00423833	0
38857.8	0.00834823	-0.00421005	0
39037.8	0.00836733	-0.00418738	0
39217.8	0.00850107	-0.00418209	0
39397.8	0.00853928	-0.00414191	0
39577.8	0.00848196	-0.00412051	0
39757.8	0.00852017	-0.00404874	0
39937.8	0.00838644	-0.00402696	0
40117.8	0.00844375	-0.00401371	0
40297.8	0.00846286	-0.00397111	0
40477.8	0.00857749	-0.0039648	0
40657.8	0.00846286	-0.00398009	0
40837.8	0.00840554	-0.00392825	0
41017.8	0.00848196	-0.00389436	0
41197.8	0.00853928	-0.00390812	0
41377.8	0.00850107	-0.00386112	0
41557.8	0.00842465	-0.00385698	0
41737.8	0.00853928	-0.00385463	0
41917.8	0.00838644	-0.00380138	0
42097.8	0.00838644	-0.00382062	0
42277.8	0.00848196	-0.00378661	0
42457.8	0.00842465	-0.00376247	0
42637.8	0.00831002	-0.00374502	0
42817.8	0.00846286	-0.00371821	0
42997.8	0.00857749	-0.00367771	0
43177.8	0.00846286	-0.00367363	0
43357.8	0.00850107	-0.00363396	0
43537.8	0.00840554	-0.00365848	0
43717.8	0.00838644	-0.00365096	0
43897.8	0.00846286	-0.0036372	0
44077.8	0.00842465	-0.00357244	0
44257.8	0.00848196	-0.00355703	0
44437.8	0.00836733	-0.00357919	0
44617.8	0.00838644	-0.00354512	0
44797.8	0.00844375	-0.00354028	0
44977.8	0.00840554	-0.00350939	0
45157.8	0.00848196	-0.00348493	0
45337.8	0.00848196	-0.00346793	0
45517.8	0.00844375	-0.00348653	0
45697.8	0.00834823	-0.00342049	0
45877.8	0.00844375	-0.00341074	0
46057.8	0.00848196	-0.00341603	0
46237.8	0.00832912	-0.00341883	0
46417.8	0.00844375	-0.00339813	0
46597.8	0.00848196	-0.00334451	0
46777.8	0.00855838	-0.0033389	0
46957.8	0.00836733	-0.00334202	0
47137.8	0.00842465	-0.00333298	0
47317.8	0.00848196	-0.00331591	0
47497.8	0.00846286	-0.00330483	0
47677.8	0.00846286	-0.00328757	0
47857.8	0.00842465	-0.00327949	0
48037.8	0.00855838	-0.00322465	0
48217.8	0.00836733	-0.00326802	0
48397.8	0.00846286	-0.00325242	0
48577.8	0.00840554	-0.00322873	0
48757.8	0.00838644	-0.00318542	0
48937.8	0.00848196	-0.00321185	0
49117.8	0.00846286	-0.00319389	0
49297.8	0.00852017	-0.00313683	0
49477.8	0.00838644	-0.00312664	0
49657.8	0.0086348	-0.00315224	0
49837.8	0.00852017	-0.00313346	0
50017.8	0.00840554	-0.0030883	0
50197.8	0.00852017	-0.00306945	0
50377.8	0.00848196	-0.00306894	0
50557.8	0.00853928	-0.00305914	0
50737.8	0.00831002	-0.00301819	0
50917.8	0.00848196	-0.0030073	0
51097.8	0.00850107	-0.00301475	0
51277.8	0.00850107	-0.00297361	0
51457.8	0.00848196	-0.00302589	0
51637.8	0.00844375	-0.00298265	0
51817.8	0.00855838	-0.0029461	0
51997.8	0.00836733	-0.00299672	0
52177.8	0.00842465	-0.00294737	0
52357.8	0.00842465	-0.00295584	0
52537.8	0.00832912	-0.0029317	0
52717.8	0.00836733	-0.00295966	0
52897.8	0.00844375	-0.00291279	0
53077.8	0.00846286	-0.00288247	0
53257.8	0.00850107	-0.00291081	0
53437.8	0.00853928	-0.00286178	0
53617.8	0.00840554	-0.00288343	0
53797.8	0.00840554	-0.00285713	0
53977.8	0.00836733	-0.00282471	0
54157.8	0.00850107	-0.00285917	0
54337.8	0.00846286	-0.00281446	0
54517.8	0.00846286	-0.00284509	0
54697.8	0.00846286	-0.00278644	0
54877.8	0.00840554	-0.00274988	0
55057.8	0.00844375	-0.00278274	0
55237.8	0.00848196	-0.00276173	0
55417.8	0.00832912	-0.00278096	0
55597.8	0.00840554	-0.00277211	0
55777.8	0.00850107	-0.0027674	0
55957.8	0.00850107	-0.00275867	0
56137.8	0.00852017	-0.00273606	0
56317.8	0.00838644	-0.00271244	0
56497.8	0.0086348	-0.00272524	0
56677.8	0.00846286	-0.00272587	0
56857.8	0.00844375	-0.00266219	0
57037.8	0.00844375	-0.00271186	0
57217.8	0.00848196	-0.00267467	0
57397.8	0.00838644	-0.00263805	0
57577.8	0.00848196	-0.00265193	0
57757.8	0.00840554	-0.00263487	0
57937.8	0.00844375	-0.00262219	0
58117.8	0.00842465	-0.00261487	0
58297.8	0.00846286	-0.00261022	0
58477.8	0.00840554	-0.00265162	0
58657.8	0.00852017	-0.00261761	0
58837.8	0.00836733	-0.00259959	0
59017.8	0.00850107	-0.00259118	0
59197.8	0.00836733	-0.0025473	0
59377.8	0.00836733	-0.00260118	0
59557.8	0.00848196	-0.00255265	0
59737.8	0.00848196	-0.00256265	0
59917.8	0.00848196	-0.00254838	0
60097.8	0.00853928	-0.00255354	0
60277.8	0.0086157	-0.00251418	0
60457.8	0.00840554	-0.00254896	0
60637.8	0.00850107	-0.00249973	0
60817.8	0.00846286	-0.00254647	0
60997.8	0.00853928	-0.00251476	0
61177.8	0.00838644	-0.00251399	0
61357.8	0.00846286	-0.00249495	0
61537.8	0.00846286	-0.00250253	0
61717.8	0.00842465	-0.00247304	0
61897.8	0.00844375	-0.00243439	0
62077.8	0.00838644	-0.00249202	0
62257.8	0.00836733	-0.00246311	0
62437.8	0.00848196	-0.00248088	0
62617.8	0.00852017	-0.00245884	0
62797.8	0.00842465	-0.00247037	0
62977.8	0.00846286	-0.00246502	0
63157.8	0.00836733	-0.00243744	0
63337.8	0.00850107	-0.00238942	0
63517.8	0.00842465	-0.00240687	0
63697.8	0.00840554	-0.00239178	0
63877.8	0.00855838	-0.00242483	0
64057.8	0.00852017	-0.00235943	0
64237.8	0.00855838	-0.00236312	0
64417.8	0.00855838	-0.00235351	0
64597.8	0.00852017	-0.00235013	0
64777.8	0.00840554	-0.00239363	0
64957.8	0.00852017	-0.00233383	0
65137.8	0.00848196	-0.0023623	0
65317.8	0.00840554	-0.00232861	0
65497.8	0.00840554	-0.00237102	0
65677.8	0.00855838	-0.00230848	0
65857.8	0.00842465	-0.0023607	0
66037.8	0.00850107	-0.00230804	0
66217.8	0.00838644	-0.00234039	0
66397.8	0.00853928	-0.00235083	0
66577.8	0.00850107	-0.00229638	0
66757.8	0.00840554	-0.00227963	0
66937.8	0.00836733	-0.00231873	0
67117.8	0.00844375	-0.00231644	0
67297.8	0.00840554	-0.00231638	0
67477.8	0.00850107	-0.002313	0
67657.8	0.00850107	-0.00228657	0
67837.8	0.00852017	-0.00227244	0
68017.8	0.00867301	-0.00225116	0
68197.8	0.00838644	-0.00228263	0
68377.8	0.00857749	-0.00228396	0
68557.8	0.00846286	-0.00227199	0
68737.8	0.00836733	-0.00224333	0
68917.8	0.00834823	-0.00224664	0
69097.8	0.00848196	-0.00223403	0
69277.8	0.00853928	-0.00225919	0
69457.8	0.00840554	-0.0022162	0
69637.8	0.00848196	-0.00220939	0
69817.8	0.00834823	-0.00223505	0
69997.8	0.00844375	-0.00223588	0
70177.8	0.00838644	-0.00219385	0
70357.8	0.00842465	-0.00221365	0
70537.9	0.00836733	-0.00223206	0
70717.9	0.00842465	-0.00219041	0
70897.9	0.00840554	-0.00219983	0
71077.9	0.00852017	-0.00219207	0
71257.9	0.00846286	-0.00217143	0
71437.9	0.00844375	-0.00218251	0
71617.9	0.00855838	-0.002212	0
71797.9	0.00853928	-0.00222174	0
71977.9	0.00859659	-0.00222047	0
72157.9	0.00842465	-0.00224715	0
72337.9	0.00850107	-0.00223792	0
72517.9	0.00852017	-0.00219436	0
72697.9	0.00853928	-0.00217035	0
72877.9	0.00848196	-0.00218767	0
73057.9	0.00852017	-0.00222333	0
73237.9	0.00831002	-0.00218786	0
73417.9	0.00848196	-0.00225823	0
73597.9	0.00842465	-0.00222251	0
73777.9	0.00836733	-0.00220843	0
73957.9	0.00846286	-0.00220811	0
74137.9	0.00855838	-0.00223887	0
74317.9	0.00838644	-0.00222626	0
74497.9	0.00846286	-0.00221735	0
74677.9	0.00831002	-0.00222302	0
74857.9	0.00844375	-0.00223295	0
75037.9	0.00850107	-0.00226346	0
75217.9	0.00844375	-0.00219805	0
75397.9	0.00838644	-0.00226072	0
75578	0.00832912	-0.00225728	0
75758	0.00848196	-0.00220888	0
75938	0.00844375	-0.00217385	0
76118	0.00848196	-0.00223359	0
76298	0.00844375	-0.00218557	0
76478	0.00855838	-0.00218442	0
76658	0.00842465	-0.00223384	0
76838	0.00869212	-0.00220983	0
77018	0.00844375	-0.00221799	0
77198	0.00844375	-0.00222747	0
77378	0.00838644	-0.00217557	0
77558	0.00848196	-0.00222913	0
77738	0.00850107	-0.00218971	0
77918	0.00859659	-0.00224359	0
78098	0.00850107	-0.00220404	0
78278	0.00840554	-0.00217672	0
78458	0.00846286	-0.00218646	0
78638	0.00840554	-0.00218576	0
78818	0.00846286	-0.00215271	0
78998	0.00853928	-0.00215341	0
79178	0.00840554	-0.00216029	0
79358	0.00853928	-0.00213736	0
79538	0.00857749	-0.00220047	0
79718	0.00848196	-0.00216207	0
79898	0.00848196	-0.002155	0
80078	0.00838644	-0.00218996	0
80258	0.00846286	-0.00218436	0
80438	0.00844375	-0.00212545	0
80618.1	0.00846286	-0.00211068	0
80798.1	0.00853928	-0.00215455	0
80978.1	0.00848196	-0.00212481	0
81158.1	0.00840554	-0.00211361	0
81338.1	0.00848196	-0.00213704	0
81518.1	0.00850107	-0.00213131	0
81698.1	0.00842465	-0.00214901	0
81878.1	0.00844375	-0.00210558	0
82058.1	0.00850107	-0.00210297	0
82238.1	0.00842465	-0.00208832	0
82418.1	0.00848196	-0.00211329	0
82598.1	0.00857749	-0.00211825	0
82778.1	0.00848196	-0.00211297	0
82958.1	0.00852017	-0.00215748	0
83138.1	0.00848196	-0.00215016	0
83318.1	0.00853928	-0.00212876	0
83498.1	0.00846286	-0.00211622	0
83678.1	0.00846286	-0.00209233	0
83858.1	0.00846286	-0.00203444	0
84038.1	0.00834823	-0.00194197	0
84218.1	0.00852017	-0.00196598	0
84398.1	0.00840554	-0.00198273	0
84578.1	0.00844375	-0.00193873	0
84758.1	0.00848196	-0.00199445	0
84938.1	0.00844375	-0.0019542	0
85118.1	0.00840554	-0.00200744	0
85298.1	0.00857749	-0.00201578	0
85478.1	0.0086157	-0.00201827	0
85658.2	0.00844375	-0.00204266	0
85838.2	0.00844375	-0.00198573	0
86018.2	0.00853928	-0.00197999	0
86198.2	0.00852017	-0.00201598	0
86378.2	0.00842465	-0.00199509	0
86558.2	0.00853928	-0.00200171	0
86738.2	0.00836733	-0.00202738	0
86918.2	0.00836733	-0.00206654	0
87098.2	0.00853928	-0.00205349	0
87278.2	0.00857749	-0.0021008	0
87458.2	0.00852017	-0.00211845	0
87638.2	0.00855838	-0.00213647	0
87818.2	0.00844375	-0.00213176	0
87998.2	0.00852017	-0.00215494	0
88178.2	0.00846286	-0.00215768	0
88358.2	0.00850107	-0.00211762	0
88538.2	0.00838644	-0.00211679	0
88718.2	0.00844375	-0.00213239	0
88898.2	0.00853928	-0.00214226	0
89078.2	0.00844375	-0.00211915	0
89258.2	0.00855838	-0.00210017	0
89438.2	0.00853928	-0.00211946	0
89618.2	0.00842465	-0.00213029	0
89798.2	0.00840554	-0.00212341	0
89978.2	0.00842465	-0.00210514	0
90158.2	0.00848196	-0.00212813	0
90338.2	0.00842465	-0.00213398	0
90518.2	0.00836733	-0.00211647	0
90698.3	0.00846286	-0.00215914	0
90878.3	0.00852017	-0.00214201	0
91058.3	0.00842465	-0.00218646	0
91238.3	0.00850107	-0.00217328	0
91418.3	0.00848196	-0.00218582	0
91598.3	0.00846286	-0.00213921	0
91778.3	0.00850107	-0.00215602	0
91958.3	0.00848196	-0.00213099	0
92138.3	0.00855838	-0.00213055	0
92318.3	0.00852017	-0.00213647	0
92498.3	0.00853928	-0.00209571	0
92678.3	0.00844375	-0.00210514	0
92858.3	0.00848196	-0.00209488	0
93038.3	0.00848196	-0.0021024	0
93218.3	0.00844375	-0.00213647	0
93398.3	0.00848196	-0.00214933	0
93578.3	0.00850107	-0.00216627	0
93758.3	0.00846286	-0.00213851	0
93938.3	0.00850107	-0.00214386	0
94118.3	0.00852017	-0.00213551	0
94298.3	0.00848196	-0.0021145	0
94478.3	0.00848196	-0.00213443	0
94658.3	0.00850107	-0.002098	0
94838.3	0.00848196	-0.00208724	0
95018.3	0.00848196	-0.00206393	0
95198.3	0.00850107	-0.00206495	0
95378.3	0.00855838	-0.00207896	0
95558.3	0.00850107	-0.00208826	0
95738.4	0.00850107	-0.00213914	0
95918.4	0.00850107	-0.00214424	0
96098.4	0.00846286	-0.00214513	0
96278.4	0.00842465	-0.00215774	0
96458.4	0.00842465	-0.00212494	0
96638.4	0.00850107	-0.00210864	0
96818.4	0.00852017	-0.00212055	0
96998.4	0.00844375	-0.00211271	0
97178.4	0.00850107	-0.00210004	0
97358.4	0.00838644	-0.00206794	0
97538.4	0.00844375	-0.00203992	0
97718.4	0.00840554	-0.00208756	0
97898.4	0.00846286	-0.00206979	0
98078.4	0.00842465	-0.00204432	0
98258.4	0.00842465	-0.00201458	0
98438.4	0.00838644	-0.00200324	0
98618.4	0.00836733	-0.0020005	0
98798.4	0.00842465	-0.00197528	0
98978.4	0.00848196	-0.00198318	0
99158.4	0.00846286	-0.00197203	0
99338.4	0.00840554	-0.00195114	0
99518.4	0.00842465	-0.00195497	0
99698.4	0.00842465	-0.0019479	0
99878.4	0.00842465	-0.00194586	0
100058	0.00850107	-0.00190797	0
100238	0.00840554	-0.00192478	0
100418	0.00857749	-0.00190835	0
100598	0.00842465	-0.0019016	0
100778	0.00848196	-0.0019037	0
100958	0.00840554	-0.00190338	0
101138	0.00842465	-0.0019044	0
101318	0.00842465	-0.00188466	0
101498	0.00848196	-0.00189338	0
101678	0.00840554	-0.00187039	0
101858	0.00852017	-0.0018395	0
102038	0.00848196	-0.00185186	0
102218	0.00850107	-0.00182479	0
102398	0.00850107	-0.00183199	0
102578	0.00844375	-0.00183486	0
102758	0.00844375	-0.00180384	0
102938	0.00842465	-0.00179391	0
103118	0.00846286	-0.00181823	0
103299	0.00840554	-0.00182123	0
103479	0.00850107	-0.00179722	0
103659	0.00850107	-0.0017827	0
103839	0.00844375	-0.00178601	0
104019	0.00848196	-0.00179244	0
104199	0.00850107	-0.00176983	0
104379	0.00840554	-0.00176729	0
104559	0.00853928	-0.00174672	0
104739	0.00838644	-0.0017506	0
104919	0.00838644	-0.00176525	0
105099	0.00848196	-0.00178142	0
105279	0.00832912	-0.00175468	0
105459	0.00842465	-0.00174168	0
105639	0.00848196	-0.00172474	0
105819	0.00842465	-0.00171341	0
105999	0.00846286	-0.00173462	0
106179	0.00842465	-0.00175035	0
106359	0.00848196	-0.00170366	0
106539	0.00848196	-0.00170494	0
106719	0.00832912	-0.00171061	0
106899	0.00840554	-0.00170341	0
107079	0.00853928	-0.00168029	0
107259	0.00846286	-0.00168806	0
107439	0.00840554	-0.00168685	0
107619	0.00836733	-0.00167953	0
107799	0.00855838	-0.00165106	0
107979	0.00846286	-0.00168029	0
108159	0.00846286	-0.00167781	0
108339	0.00844375	-0.00167513	0
108519	0.00848196	-0.00163711	0
108699	0.00838644	-0.00164094	0
108879	0.00846286	-0.00163711	0
109059	0.00836733	-0.00163622	0
109239	0.00842465	-0.0016396	0
109419	0.00844375	-0.00159266	0
109599	0.00844375	-0.00160368	0
109779	0.00853928	-0.00160559	0
109959	0.00859659	-0.00159464	0
110139	0.00846286	-0.00160171	0
110319	0.00842465	-0.00158859	0
110499	0.00844375	-0.0015577	0
110679	0.00850107	-0.00153407	0
110859	0.00844375	-0.00155744	0
111039	0.00848196	-0.00151618	0
111219	0.00842465	-0.00154604	0
111399	0.00853928	-0.00154299	0
111579	0.00844375	-0.00152567	0
111759	0.00840554	-0.00150471	0
111939	0.00846286	-0.00152993	0
112119	0.00846286	-0.00150573	0
112299	0.00853928	-0.00149185	0
112479	0.00855838	-0.00149491	0
112659	0.00840554	-0.00148191	0
112839	0.00842465	-0.00151407	0
113019	0.00840554	-0.00147656	0
113199	0.00842465	-0.00149459	0
113379	0.00850107	-0.00146185	0
113559	0.00852017	-0.0014858	0
113739	0.00834823	-0.00146612	0
113919	0.00838644	-0.00143835	0
114099	0.00846286	-0.00142651	0
114279	0.00842465	-0.00143491	0
114459	0.00850107	-0.00144701	0
114639	0.00848196	-0.00144625	0
114819	0.00842465	-0.00142039	0
114999	0.00844375	-0.00144733	0
115179	0.00844375	-0.0014239	0
115359	0.00836733	-0.00141899	0
115539	0.00844375	-0.00140377	0
115719	0.00838644	-0.00140205	0
115899	0.00848196	-0.00143205	0
116079	0.00846286	-0.00139887	0
116259	0.00848196	-0.00140447	0
116439	0.00834823	-0.00140078	0
116619	0.00846286	-0.0014295	0
116799	0.00846286	-0.00137964	0
116979	0.00838644	-0.00136798	0
117159	0.00842465	-0.0013853	0
117339	0.00848196	-0.0013662	0
117519	0.00834823	-0.00136951	0
117699	0.00842465	-0.00140938	0
117879	0.00846286	-0.00138148	0
118059	0.00850107	-0.00139148	0
118239	0.00838644	-0.00138193	0
118419	0.00844375	-0.00135932	0
118599	0.00846286	-0.00133391	0
118779	0.00842465	-0.00136785	0
118959	0.00844375	-0.0013462	0
119139	0.00848196	-0.00135645	0
119319	0.00850107	-0.00136983	0
119499	0.00850107	-0.00135964	0
119679	0.00838644	-0.0013413	0
119859	0.00838644	-0.00135811	0
120039	0.00848196	-0.00137187	0
120219	0.00840554	-0.00133429	0
120399	0.00850107	-0.00132136	0
120579	0.00840554	-0.00134614	0
120759	0.00844375	-0.00132818	0
120939	0.00844375	-0.00134907	0
121119	0.00846286	-0.00133206	0
121299	0.00842465	-0.00132831	0
121479	0.00842465	-0.00130614	0
121659	0.00853928	-0.00131436	0
121839	0.00846286	-0.0013392	0
122019	0.00840554	-0.00132633	0
122199	0.00840554	-0.00132143	0
122379	0.00840554	-0.00133194	0
122559	0.00836733	-0.00132722	0
122739	0.00836733	-0.001295	0
122919	0.00844375	-0.00131652	0
123099	0.00850107	-0.00133811	0
123279	0.00840554	-0.00132888	0
123459	0.00853928	-0.00132124	0
123639	0.00842465	-0.001322	0
123819	0.00853928	-0.00131767	0
123999	0.00846286	-0.0013271	0
124179	0.00844375	-0.00131283	0
124359	0.00836733	-0.00131964	0
124539	0.00836733	-0.00129366	0
124719	0.00848196	-0.00129328	0
124899	0.00844375	-0.00133098	0
125079	0.00844375	-0.0012978	0
125259	0.00853928	-0.00129697	0
125439	0.00850107	-0.00128857	0
125619	0.00844375	-0.00132334	0
125799	0.00844375	-0.00131232	0
125979	0.00840554	-0.00130232	0
126159	0.00857749	-0.00129392	0
126339	0.00844375	-0.00129277	0
126519	0.00846286	-0.00130653	0
126699	0.00842465	-0.00130557	0
126879	0.00836733	-0.00131703	0
127059	0.00844375	-0.00130653	0
127239	0.00842465	-0.00128538	0
127419	0.00842465	-0.00128717	0
127599	0.00853928	-0.0013206	0
127779	0.00846286	-0.00146351	0
127959	0.00836733	-0.00164164	0
128139	0.00840554	-0.00168672	0
128319	0.00844375	-0.00175035	0
128499	0.00855838	-0.00175843	0
128679	0.00842465	-0.00175136	0
128859	0.00848196	-0.0017748	0
129039	0.00842465	-0.00173532	0
129219	0.00842465	-0.00175149	0
129399	0.00838644	-0.00174697	0
129579	0.00842465	-0.00173557	0
129759	0.00842465	-0.00170207	0
129939	0.00846286	-0.00173493	0
130119	0.00846286	-0.00171207	0
130299	0.00853928	-0.00170991	0
130479	0.00852017	-0.00169787	0
130659	0.00844375	-0.00167335	0
130839	0.00844375	-0.00170233	0
131019	0.00852017	-0.00167106	0
131199	0.00848196	-0.00170188	0
131379	0.00852017	-0.00166469	0
131559	0.00846286	-0.00167074	0
131739	0.00832912	-0.00166959	0
131919	0.00848196	-0.00165081	0
132099	0.00846286	-0.00162775	0
132279	0.00840554	-0.00164094	0
132459	0.00846286	-0.00164648	0
132639	0.00857749	-0.00163418	0
132819	0.00850107	-0.00163049	0
132999	0.00836733	-0.00161565	0
133179	0.00840554	-0.00164202	0
133359	0.00836733	-0.00160553	0
133539	0.00846286	-0.00160362	0
133719	0.00846286	-0.00160209	0
133899	0.00840554	-0.00158719	0
134079	0.00848196	-0.00160247	0
134259	0.00846286	-0.00157572	0
134439	0.00834823	-0.00161132	0
134619	0.00852017	-0.00157005	0
134799	0.00840554	-0.00159031	0
134979	0.00846286	-0.00154146	0
135159	0.00838644	-0.00155955	0
135339	0.00844375	-0.00154108	0
135519	0.00842465	-0.00156808	0
135699	0.00840554	-0.00156381	0
135879	0.00838644	-0.00156732	0
136059	0.00844375	-0.00156591	0
136239	0.00846286	-0.0015761	0
136419	0.00840554	-0.00159062	0
136599	0.00846286	-0.00155789	0
136779	0.00842465	-0.00156623	0
136959	0.00850107	-0.00155439	0
137139	0.00848196	-0.00153267	0
137319	0.00834823	-0.00154464	0
137499	0.00848196	-0.0015691	0
137679	0.00848196	-0.00155114	0
137859	0.00844375	-0.00151669	0
138039	0.00842465	-0.00150535	0
138219	0.00844375	-0.00152987	0
138399	0.00844375	-0.00151376	0
138579	0.00838644	-0.00152675	0
138759	0.00840554	-0.00152904	0
138939	0.00846286	-0.00150541	0
139119	0.00836733	-0.00152923	0
139299	0.00848196	-0.00150204	0
139479	0.00842465	-0.00154369	0
139659	0.00846286	-0.00153095	0
139839	0.00846286	-0.00150739	0
140019	0.00853928	-0.00150955	0
140199	0.00844375	-0.00151369	0
140379	0.00844375	-0.00149828	0
140559	0.00836733	-0.00149433	0
140739	0.00844375	-0.00151471	0
140919	0.00846286	-0.00147459	0
141099	0.00844375	-0.0015186	0
141279	0.00842465	-0.00147803	0
141459	0.00844375	-0.00151726	0
141639	0.00844375	-0.00146886	0
141819	0.00853928	-0.00148905	0
141999	0.00844375	-0.0015	0
142179	0.00840554	-0.00149764	0
142359	0.00842465	-0.00147026	0
142539	0.00842465	-0.00150777	0
142719	0.00850107	-0.00151032	0
142899	0.00846286	-0.00147115	0
143079	0.00855838	-0.0014816	0
143259	0.00842465	-0.00145994	0
143439	0.00852017	-0.00144963	0
143619	0.00842465	-0.00146962	0
143799	0.00834823	-0.00145109	0
143979	0.00842465	-0.00143447	0
144159	0.00842465	-0.00144281	0
144339	0.00832912	-0.00145294	0
144519	0.00846286	-0.00145542	0
144699	0.00838644	-0.0014253	0
144879	0.00838644	-0.00146873	0
145059	0.00850107	-0.00143262	0
145239	0.00827181	-0.00142313	0
145419	0.00840554	-0.00143313	0
145599	0.00846286	-0.00140906	0
145779	0.00836733	-0.0014081	0
145959	0.00840554	-0.00142632	0
146139	0.00850107	-0.00140791	0
146319	0.00844375	-0.00143753	0
146499	0.00846286	-0.00142797	0
146679	0.00840554	-0.00140925	0
146859	0.00838644	-0.00138237	0
147039	0.00844375	-0.00138562	0
147219	0.00846286	-0.00137008	0
147399	0.00838644	-0.00139524	0
147579	0.00838644	-0.00142008	0
147759	0.00840554	-0.00137556	0
147939	0.00852017	-0.00138925	0
148119	0.00844375	-0.00136034	0
148299	0.00832912	-0.00137091	0
148479	0.00838644	-0.00140142	0
148659	0.00842465	-0.00135817	0
148839	0.00842465	-0.00138791	0
149019	0.00853928	-0.00137919	0
149199	0.00842465	-0.00139619	0
149379	0.00850107	-0.00136225	0
149559	0.00836733	-0.00138613	0
149739	0.00840554	-0.00136575	0
149919	0.00846286	-0.00134244	0
150099	0.00848196	-0.0013818	0
150279	0.00848196	-0.00135015	0
150459	0.00846286	-0.00133799	0
150639	0.00840554	-0.00137562	0
150819	0.00852017	-0.00134926	0
150999	0.00842465	-0.00134021	0
151179	0.00844375	-0.00135588	0
151359	0.00848196	-0.00133436	0
151539	0.00838644	-0.00134677	0
151719	0.00853928	-0.0013327	0
151899	0.00844375	-0.00131181	0
152079	0.00853928	-0.00133518	0
152259	0.00842465	-0.00134486	0
152439	0.00842465	-0.00133894	0
152619	0.00853928	-0.0013341	0
152799	0.00848196	-0.00130633	0
152979	0.00848196	-0.0013385	0
153159	0.00846286	-0.00129551	0
153339	0.00852017	-0.00131818	0
153519	0.00840554	-0.00129971	0
153699	0.00846286	-0.0013269	0
153879	0.00844375	-0.00132461	0
154059	0.00846286	-0.00133066	0
154239	0.00842465	-0.00129939	0
154419	0.00840554	-0.00131977	0
154599	0.00846286	-0.00128462	0
154779	0.00853928	-0.00131321	0
154959	0.00848196	-0.00129035	0
155139	0.00846286	-0.00132442	0
155319	0.00846286	-0.00132327	0
155499	0.00842465	-0.00132124	0
155679	0.00842465	-0.00128513	0
155859	0.00850107	-0.00129933	0
156039	0.00840554	-0.00129474	0
156219	0.00846286	-0.00132206	0
156399	0.00848196	-0.0012843	0
156579	0.00848196	-0.00129774	0
156759	0.00836733	-0.0013092	0
156939	0.00852017	-0.00133811	0
157119	0.00844375	-0.00129831	0
157299	0.00838644	-0.00130653	0
157479	0.00844375	-0.00132385	0
157659	0.00842465	-0.00129532	0
157839	0.00848196	-0.00128315	0
158019	0.00844375	-0.00130334	0
158199	0.00842465	-0.00131703	0
158379	0.00853928	-0.00128092	0
158559	0.00840554	-0.00128156	0
158739	0.00855838	-0.00133646	0
158919	0.00850107	-0.00134021	0
159099	0.00850107	-0.00134174	0
159279	0.00842465	-0.00133092	0
159459	0.00848196	-0.00128201	0
159639	0.00846286	-0.00134353	0
159819	0.00842465	-0.00133856	0
159999	0.00838644	-0.00135473	0
160179	0.00855838	-0.00132117	0
160359	0.00848196	-0.00130621	0
160539	0.00848196	-0.00130022	0
160719	0.00846286	-0.00131659	0
160899	0.00846286	-0.00130009	0
161079	0.00838644	-0.00133149	0
161259	0.00844375	-0.00132226	0
161439	0.00838644	-0.00128194	0
161619	0.00834823	-0.00127978	0
161799	0.00842465	-0.00129971	0
161979	0.00855838	-0.00132633	0
162159	0.00844375	-0.00132105	0
162339	0.00848196	-0.00130774	0
162519	0.00840554	-0.00133805	0
162699	0.00848196	-0.0012836	0
162879	0.00846286	-0.00132143	0
163059	0.00850107	-0.00129576	0
163239	0.00844375	-0.00128436	0
163419	0.00840554	-0.00132302	0
163599	0.00857749	-0.00132283	0
163779	0.00855838	-0.00129309	0
163959	0.00857749	-0.0012978	0
164139	0.00859659	-0.00129143	0
164319	0.00850107	-0.00129825	0
164499	0.00848196	-0.00128061	0
164679	0.00844375	-0.00131582	0
164859	0.00844375	-0.00132168	0
165039	0.00848196	-0.00131977	0
165219	0.00857749	-0.00129646	0
165399	0.00844375	-0.0012822	0
165579	0.00848196	-0.00132831	0
165759	0.00846286	-0.00130939	0
165939	0.00844375	-0.00130423	0
166119	0.00850107	-0.00129876	0
166299	0.00842465	-0.00130557	0
166479	0.00852017	-0.00132181	0
166659	0.00846286	-0.00130213	0
166839	0.00842465	-0.00132786	0
167019	0.00846286	-0.00127698	0
167199	0.00844375	-0.0012971	0
167379	0.00850107	-0.00129029	0
167559	0.00850107	-0.00128869	0
167739	0.00846286	-0.00130786	0
167919	0.00844375	-0.00127742	0
168099	0.00846286	-0.00126265	0
168279	0.00844375	-0.00130519	0
168459	0.00852017	-0.00129665	0
168639	0.00848196	-0.00128232	0
168819	0.00848196	-0.00128704	0
168999	0.00852017	-0.0012908	0
169179	0.00857749	-0.00125762	0
169359	0.00838644	-0.0012643	0
169539	0.00842465	-0.0012792	0
169719	0.00848196	-0.00126851	0
169899	0.00834823	-0.00127182	0
170079	0.00838644	-0.00126093	0
170259	0.00850107	-0.00126659	0
170439	0.00842465	-0.00130423	0
170619	0.00844375	-0.00126488	0
170799	0.00855838	-0.00128054	0
170979	0.00848196	-0.00127589	0
171159	0.00844375	-0.00127532	0
171339	0.00848196	-0.00127551	0
171519	0.00850107	-0.00128245	0
171699	0.00859659	-0.00127819	0
171879	0.00850107	-0.00126908	0
172059	0.00852017	-0.0012352	0
172239	0.00838644	-0.00125787	0
172419	0.00846286	-0.00124634	0
172599	0.00842465	-0.00126035	0
172779	0.00852017	-0.00127099	0
172959	0.00838644	-0.00127698	0
173139	0.00853928	-0.00124131	0
173319	0.00840554	-0.00124723	0
173499	0.00852017	-0.00127583	0
173679	0.00836733	-0.00124367	0
173859	0.00842465	-0.00126634	0
174039	0.00855838	-0.0012673	0
174219	0.00844375	-0.00124876	0
174399	0.00838644	-0.00128264	0
174579	0.00842465	-0.00128844	0
174759	0.00840554	-0.00125984	0
174939	0.00850107	-0.00126417	0
175119	0.00848196	-0.00127742	0
175299	0.00844375	-0.00129678	0
175479	0.00840554	-0.00128226	0
175659	0.00840554	-0.00126532	0
175839	0.00840554	-0.00127169	0
176019	0.00850107	-0.00127717	0
176199	0.00840554	-0.00125717	0
176379	0.00840554	-0.00127659	0
176559	0.00836733	-0.00128678	0
176739	0.00838644	-0.00129003	0
176919	0.00840554	-0.0012836	0
177099	0.00846286	-0.00126488	0
177279	0.00848196	-0.00128118	0
177459	0.00844375	-0.00128061	0
177639	0.00848196	-0.00129958	0
177819	0.00846286	-0.00126857	0
177999	0.00848196	-0.00127984	0
178179	0.00846286	-0.00129366	0
178359	0.00848196	-0.00129799	0
178539	0.00852017	-0.0012743	0
178719	0.00853928	-0.0012687	0
178899	0.00850107	-0.00128978	0
179079	0.00846286	-0.00130672	0
179259	0.00852017	-0.00130895	0
179439	0.00853928	-0.00130302	0
179619	0.00848196	-0.00130863	0
179799	0.00848196	-0.00130442	0
179979	0.00855838	-0.00130716	0
180159	0.00838644	-0.00128767	0
180339	0.00850107	-0.00129856	0
180519	0.00850107	-0.00129608	0
180699	0.00848196	-0.00132805	0
180879	0.00844375	-0.00130474	0
181059	0.00848196	-0.00131729	0
181239	0.00850107	-0.00133346	0
181419	0.00852017	-0.00135276	0
181599	0.00852017	-0.00134907	0
181779	0.00836733	-0.00136123	0
181959	0.00857749	-0.0013506	0
182139	0.00844375	-0.00139511	0
182319	0.00852017	-0.00139123	0
182499	0.00855838	-0.00139314	0
182679	0.00853928	-0.00141543	0
182859	0.00846286	-0.00142402	0
183039	0.00840554	-0.00141377	0
183219	0.00840554	-0.00143065	0
183399	0.00840554	-0.00141434	0
183579	0.00848196	-0.0014474	0
183759	0.00855838	-0.00146217	0
183939	0.00855838	-0.00145262	0
184119	0.00838644	-0.00146236	0
184299	0.00852017	-0.00147211	0
184479	0.00848196	-0.00145364	0
184659	0.00840554	-0.00147739	0
184839	0.00852017	-0.00147109	0
185019	0.00838644	-0.00147172	0
185199	0.00853928	-0.00148382	0
185379	0.00844375	-0.00148542	0
185559	0.00853928	-0.00149892	0
185739	0.00844375	-0.00147968	0
185919	0.00853928	-0.00149007	0
186099	0.00840554	-0.00149051	0
186279	0.00850107	-0.00149713	0
186459	0.00848196	-0.00151115	0
186639	0.00842465	-0.00150459	0
186819	0.00853928	-0.00148707	0
186999	0.00850107	-0.00150191	0
187179	0.00842465	-0.001473	0
187359	0.00850107	-0.00148363	0
187539	0.00850107	-0.00150032	0
187719	0.00846286	-0.00148873	0
187899	0.00846286	-0.00147714	0
188079	0.00850107	-0.00147574	0
188259	0.00838644	-0.00147427	0
188439	0.00840554	-0.00150057	0
188619	0.00840554	-0.00147911	0
188799	0.00852017	-0.0014886	0
188979	0.00848196	-0.0014637	0
189159	0.00855838	-0.00147204	0
189339	0.00848196	-0.00145886	0
189519	0.00842465	-0.00146708	0
189699	0.00852017	-0.00146134	0
189879	0.00844375	-0.00145434	0
190059	0.00859659	-0.00146032	0
190239	0.00846286	-0.00144842	0
190419	0.00848196	-0.00141842	0
190599	0.00850107	-0.00143237	0
190779	0.00844375	-0.00143721	0
190959	0.00840554	-0.0014465	0
191139	0.00840554	-0.0014516	0
191319	0.00857749	-0.0014104	0
191499	0.00838644	-0.00142396	0
191679	0.00840554	-0.00142581	0
191859	0.00842465	-0.0014225	0
192039	0.00850107	-0.00143313	0
192219	0.00840554	-0.00142562	0
192399	0.00846286	-0.00142154	0
192579	0.00848196	-0.00141001	0
192759	0.00840554	-0.00140804	0
192939	0.00840554	-0.00140944	0
193119	0.00855838	-0.0013932	0
193299	0.00834823	-0.00139027	0
193479	0.00844375	-0.00138594	0
193659	0.00850107	-0.00139014	0
193839	0.00840554	-0.00139116	0
194019	0.00850107	-0.00139428	0
194199	0.00865391	-0.00140938	0
194379	0.00840554	-0.00138951	0
194559	0.00855838	-0.00137091	0
194739	0.00857749	-0.00138384	0
194919	0.00842465	-0.00137639	0
195099	0.00852017	-0.00137594	0
195279	0.00844375	-0.00139963	0
195459	0.00846286	-0.00138811	0
195639	0.00853928	-0.00139721	0
195819	0.00852017	-0.00137836	0
195999	0.00852017	-0.00137072	0
196179	0.00846286	-0.0013469	0
196359	0.00850107	-0.00136002	0
196539	0.00840554	-0.0013455	0
196719	0.00855838	-0.00135715	0
196899	0.00836733	-0.00133926	0
197079	0.00848196	-0.00133843	0
197259	0.00853928	-0.00133378	0
197439	0.00846286	-0.00135792	0
197619	0.00850107	-0.00133652	0
197799	0.00846286	-0.00133264	0
197979	0.00846286	-0.00133225	0
198159	0.00844375	-0.00133289	0
198339	0.00852017	-0.0013483	0
198519	0.00857749	-0.00134009	0
198699	0.00850107	-0.00133162	0
198879	0.00842465	-0.00132034	0
199059	0.00859659	-0.00130258	0
199239	0.00853928	-0.00131907	0
199419	0.00840554	-0.00133646	0
199599	0.00852017	-0.00131678	0
199779	0.00844375	-0.00130646	0
199959	0.00848196	-0.00132875	0
200139	0.00848196	-0.00133951	0
200319	0.00844375	-0.00134658	0
200499	0.00853928	-0.00131232	0
200679	0.00852017	-0.00132512	0
200859	0.00852017	-0.00131512	0
201039	0.00855838	-0.00131283	0
201219	0.00853928	-0.00130582	0
201399	0.00840554	-0.00131111	0
201579	0.00838644	-0.0012906	0
201759	0.00842465	-0.00132175	0
201939	0.00844375	-0.00132079	0
202119	0.00838644	-0.00132512	0
202299	0.00852017	-0.001302	0
202479	0.00846286	-0.00128908	0
202659	0.00846286	-0.00130118	0
202839	0.00850107	-0.00130487	0
203019	0.00836733	-0.00129914	0
203199	0.00848196	-0.0013134	0
203379	0.00842465	-0.00128704	0
203559	0.00857749	-0.00129137	0
203739	0.00846286	-0.00129385	0
203919	0.00846286	-0.00128723	0
204099	0.00844375	-0.0013157	0
204279	0.00857749	-0.00132283	0
204459	0.00846286	-0.00130716	0
204639	0.00844375	-0.00132085	0
204819	0.00842465	-0.00131939	0
204999	0.00853928	-0.00130812	0
205179	0.00857749	-0.00128462	0
205359	0.00840554	-0.00128494	0
205539	0.00850107	-0.00128474	0
205719	0.00844375	-0.00129041	0
205899	0.00846286	-0.00129411	0
206079	0.00844375	-0.00128857	0
206259	0.00848196	-0.00127691	0
206439	0.00842465	-0.00129984	0
206619	0.00844375	-0.00128328	0
206799	0.00840554	-0.00127608	0
206979	0.00852017	-0.00126456	0
207159	0.00853928	-0.00129589	0
207339	0.00846286	-0.00128092	0
207519	0.00842465	-0.00126857	0
207699	0.00846286	-0.00127475	0
207879	0.00848196	-0.00128462	0
208059	0.00846286	-0.00125787	0
208239	0.00836733	-0.00124189	0
208419	0.00842465	-0.00126112	0
208599	0.00848196	-0.0012673	0
208779	0.00850107	-0.00125755	0
208959	0.00844375	-0.00125449	0
209139	0.00855838	-0.00124571	0
209319	0.00848196	-0.00125227	0
209499	0.00844375	-0.00124883	0
209679	0.00852017	-0.00124889	0
209859	0.00842465	-0.00124832	0
210039	0.00850107	-0.00126207	0
210219	0.00852017	-0.00125144	0
210399	0.0086348	-0.00125488	0
210579	0.00844375	-0.00128029	0
210759	0.00846286	-0.00125125	0
210939	0.00852017	-0.00127163	0
211119	0.00836733	-0.00125488	0
211299	0.00842465	-0.00127112	0
211479	0.00840554	-0.00126787	0
211659	0.00857749	-0.00127335	0
211839	0.00844375	-0.00127895	0
212019	0.00842465	-0.00128793	0
212199	0.00846286	-0.00125691	0
212379	0.00848196	-0.00125762	0
212559	0.00850107	-0.00125762	0
212739	0.00848196	-0.00124609	0
212919	0.00850107	-0.00124265	0
213099	0.00842465	-0.00124997	0
213279	0.00834823	-0.0012664	0
213459	0.00848196	-0.00126023	0
213639	0.00848196	-0.00125195	0
213819	0.00846286	-0.00124316	0
213999	0.00853928	-0.00126443	0
214179	0.00848196	-0.00127659	0
214359	0.00840554	-0.00126367	0
214539	0.00853928	-0.00125755	0
214719	0.00850107	-0.00127105	0
214899	0.00855838	-0.00127991	0
215079	0.00855838	-0.00125048	0
215259	0.00852017	-0.00123934	0
215439	0.00846286	-0.00125443	0
215619	0.00836733	-0.00123284	0
215799	0.00850107	-0.00122412	0
215979	0.00850107	-0.00123297	0
216159	0.00846286	-0.00122501	0
216339	0.00850107	-0.00122756	0
216519	0.00848196	-0.00123513	0
216699	0.00844375	-0.00121991	0
216879	0.00840554	-0.00122055	0
217059	0.00857749	-0.00121425	0
217239	0.00850107	-0.00121355	0
217419	0.00844375	-0.0012073	0
217599	0.00846286	-0.00121221	0
217779	0.00852017	-0.0012166	0
217959	0.00853928	-0.00123087	0
218139	0.00842465	-0.00120979	0
218319	0.00853928	-0.00120864	0
218499	0.00850107	-0.0012203	0
218679	0.00842465	-0.00120253	0
218859	0.00848196	-0.00126233	0
219039	0.00853928	-0.00127647	0
219219	0.00842465	-0.0012608	0
219399	0.0086157	-0.00123029	0
219579	0.00844375	-0.00123838	0
219759	0.00838644	-0.00121743	0
219939	0.00857749	-0.00121851	0
220119	0.00844375	-0.00121552	0
220299	0.00848196	-0.00121183	0
220479	0.00840554	-0.00121864	0
220659	0.00842465	-0.00120807	0
220839	0.00842465	-0.00119616	0
221019	0.00840554	-0.00120641	0
221199	0.00836733	-0.00120565	0
221379	0.00846286	-0.00119737	0
221559	0.00842465	-0.0011803	0
221739	0.00838644	-0.00118374	0
221919	0.00853928	-0.00120864	0
222099	0.00846286	-0.00120488	0
222279	0.00853928	-0.00119234	0
222459	0.00836733	-0.00119743	0
222639	0.00840554	-0.00118081	0
222819	0.00838644	-0.00117877	0
222999	0.00848196	-0.00119234	0
223179	0.00855838	-0.00119285	0
223359	0.00838644	-0.00120565	0
223539	0.00834823	-0.0012003	0
223719	0.00846286	-0.00119501	0
223899	0.00846286	-0.00119393	0
224079	0.00848196	-0.0011945	0
224259	0.00838644	-0.0011682	0
224439	0.00857749	-0.001161	0
224619	0.00844375	-0.00119055	0
224799	0.00840554	-0.00117291	0
224979	0.00848196	-0.00116648	0
225159	0.00855838	-0.0012038	0
225339	0.00844375	-0.00119495	0
225519	0.00850107	-0.00120386	0
225699	0.00844375	-0.00118463	0
225879	0.00844375	-0.0011768	0
226059	0.00850107	-0.00117795	0
226239	0.00850107	-0.00118368	0
226419	0.00844375	-0.00116827	0
226599	0.00846286	-0.00117565	0
226779	0.00844375	-0.00115814	0
226959	0.00842465	-0.00118801	0
227139	0.00840554	-0.00116323	0
227319	0.00855838	-0.00117801	0
227499	0.00844375	-0.00117432	0
227679	0.0082527	-0.00116782	0
227859	0.00836733	-0.00114655	0
228039	0.00840554	-0.00114362	0
228219	0.00844375	-0.00115062	0
228399	0.00844375	-0.00115496	0
228579	0.00836733	-0.00116081	0
228759	0.00840554	-0.0011256	0
228939	0.00855838	-0.0011561	0
229119	0.00855838	-0.00114126	0
229299	0.00844375	-0.0011598	0
229479	0.00846286	-0.00115451	0
229659	0.00838644	-0.00115406	0
229839	0.00848196	-0.00112789	0
230019	0.00852017	-0.00112999	0
230199	0.00840554	-0.00112445	0
230379	0.00836733	-0.00114336	0
230559	0.00848196	-0.00113254	0
230739	0.00852017	-0.00113247	0
230919	0.00853928	-0.0011163	0
231099	0.00842465	-0.00113712	0
231279	0.00844375	-0.00111534	0
231459	0.00846286	-0.00112942	0
231639	0.00840554	-0.00112305	0
231819	0.00852017	-0.00112139	0
231999	0.00852017	-0.00112636	0
232179	0.00852017	-0.0011384	0
232359	0.00844375	-0.00112158	0
232539	0.00853928	-0.00112394	0
232719	0.00853928	-0.00110464	0
232899	0.00836733	-0.0011305	0
233079	0.00850107	-0.00111802	0
233259	0.00850107	-0.00111617	0
233439	0.00846286	-0.0011128	0
233619	0.00853928	-0.00111611	0
233799	0.00844375	-0.00112362	0
233979	0.00840554	-0.00110789	0
234159	0.00848196	-0.0011398	0
234339	0.00852017	-0.00112407	0
234519	0.00848196	-0.00111974	0
234699	0.00846286	-0.00110401	0
234879	0.00840554	-0.0011291	0
235059	0.00846286	-0.00113126	0
235239	0.00846286	-0.0011198	0
235419	0.00857749	-0.00112082	0
235599	0.00844375	-0.00111171	0
235779	0.00848196	-0.00112668	0
235959	0.00844375	-0.00110267	0
236139	0.00852017	-0.00110203	0
236319	0.00853928	-0.00112617	0
236499	0.00848196	-0.0011163	0
236679	0.00855838	-0.00110598	0
236859	0.00848196	-0.00110222	0
237039	0.00836733	-0.00110452	0
237219	0.0086157	-0.00111967	0
237399	0.00848196	-0.00110821	0
237579	0.00853928	-0.00111324	0
237759	0.00842465	-0.00110394	0
237939	0.00832912	-0.00112298	0
238119	0.00850107	-0.00111108	0
238299	0.00848196	-0.00112732	0
238479	0.00848196	-0.00109445	0
238659	0.00846286	-0.00111146	0
238839	0.00850107	-0.0011042	0
239019	0.00840554	-0.0010963	0
239199	0.00836733	-0.00111553	0
239379	0.00853928	-0.00110159	0
239559	0.00853928	-0.00111082	0
239739	0.00846286	-0.00108369	0
239919	0.00848196	-0.00110133	0
240099	0.00846286	-0.00110458	0
240279	0.00844375	-0.00109745	0
240459	0.00852017	-0.00111617	0
240639	0.00840554	-0.00110719	0
240819	0.00842465	-0.00111464	0
240999	0.00844375	-0.0010884	0
241179	0.00844375	-0.00109828	0
241359	0.00848196	-0.00109515	0
241539	0.00848196	-0.00109757	0
241719	0.00846286	-0.00109745	0
241899	0.00852017	-0.00111343	0
242079	0.00840554	-0.00110808	0
242259	0.00846286	-0.00111872	0
242439	0.00850107	-0.00113566	0
242619	0.00848196	-0.00109019	0
242799	0.00844375	-0.00109573	0
242979	0.00846286	-0.0011212	0
243159	0.00846286	-0.00112795	0
243339	0.00850107	-0.00111432	0
243519	0.00848196	-0.00111305	0
243699	0.00853928	-0.00113496	0
243879	0.00846286	-0.00111706	0
244059	0.00840554	-0.00113814	0
244239	0.00844375	-0.00111681	0
244419	0.00853928	-0.00114406	0
244599	0.00857749	-0.00114152	0
244779	0.00850107	-0.00114827	0
244959	0.00850107	-0.00114859	0
245139	0.00848196	-0.00113317	0
245319	0.00852017	-0.00115432	0
245499	0.00853928	-0.00115954	0
245679	0.00853928	-0.00116546	0
245859	0.00850107	-0.00115973	0
246039	0.00832912	-0.00115629	0
246219	0.00850107	-0.00118813	0
246399	0.00848196	-0.00116088	0
246579	0.00840554	-0.00117635	0
246759	0.00846286	-0.00117903	0
246939	0.00853928	-0.00117763	0
247119	0.00855838	-0.00120609	0
247299	0.00838644	-0.00119794	0
247479	0.00844375	-0.00121355	0
247659	0.00842465	-0.00121635	0
247839	0.00848196	-0.0011975	0
248019	0.00840554	-0.00121259	0
248199	0.00840554	-0.00119323	0
248379	0.00853928	-0.00120055	0
248559	0.00853928	-0.00118361	0
248739	0.00855838	-0.00119794	0
248919	0.00846286	-0.00119737	0
249099	0.00850107	-0.00120692	0
249279	0.00848196	-0.00119807	0
249459	0.00844375	-0.00115858	0
249639	0.00846286	-0.00119941	0
249819	0.00850107	-0.00119667	0
249999	0.00853928	-0.001181	0
250179	0.00840554	-0.00120699	0
250359	0.00848196	-0.00118075	0
250539	0.00853928	-0.0011882	0
250719	0.00848196	-0.00117361	0
250899	0.00842465	-0.00117756	0
251079	0.00844375	-0.00116489	0
251259	0.00853928	-0.00114387	0
251439	0.00850107	-0.00113279	0
251619	0.00850107	-0.00114629	0
251799	0.00844375	-0.00116986	0
251979	0.00848196	-0.00114515	0
252159	0.00852017	-0.00115222	0
252339	0.00848196	-0.00114865	0
252519	0.00855838	-0.00115553	0
252699	0.00850107	-0.00113419	0
252879	0.00852017	-0.00116827	0
253059	0.00852017	-0.0011484	0
253239	0.00840554	-0.00114266	0
253419	0.00844375	-0.00112904	0
253599	0.00836733	-0.00113731	0
253779	0.00840554	-0.00109898	0
253959	0.00848196	-0.00111649	0
254139	0.00846286	-0.00112025	0
254319	0.00846286	-0.00112267	0
254499	0.00852017	-0.00110859	0
254679	0.00848196	-0.00110917	0
254859	0.00838644	-0.00113388	0
255039	0.00842465	-0.0011205	0
255219	0.00844375	-0.00113101	0
255399	0.00842465	-0.00110063	0
255579	0.00842465	-0.00111127	0
255759	0.00848196	-0.00110643	0
255939	0.00850107	-0.00112165	0
256119	0.00857749	-0.0011298	0
256299	0.00842465	-0.00112674	0
256479	0.00844375	-0.00112719	0
256659	0.00846286	-0.00114846	0
256839	0.00848196	-0.00112464	0
257019	0.00840554	-0.00112623	0
257199	0.00846286	-0.00113432	0
257379	0.00846286	-0.0011391	0
257559	0.00842465	-0.00113241	0
257739	0.00853928	-0.00112477	0
257919	0.00857749	-0.00113037	0
258099	0.00852017	-0.0011212	0
258279	0.00846286	-0.00113617	0
258459	0.00844375	-0.0011717	0
258639	0.00853928	-0.00114024	0
258819	0.00857749	-0.00112541	0
258999	0.00838644	-0.00113731	0
259179	0.00852017	-0.00112209	0
259359	0.00842465	-0.00110974	0
259539	0.00853928	-0.00112649	0
259719	0.00842465	-0.00110331	0
259899	0.00852017	-0.00109745	0
260079	0.00842465	-0.00110706	0
260259	0.00848196	-0.00109382	0
260439	0.00844375	-0.00109382	0
260619	0.00846286	-0.00107223	0
260799	0.00848196	-0.00109496	0
260979	0.00848196	-0.00109821	0
261159	0.00853928	-0.00108159	0
261339	0.00846286	-0.00109656	0
261519	0.00846286	-0.00108809	0
261699	0.00850107	-0.00107866	0
261879	0.00842465	-0.00107834	0
262059	0.00844375	-0.00106478	0
262239	0.00850107	-0.00108541	0
262419	0.00855838	-0.00106694	0
262599	0.00853928	-0.0010621	0
262779	0.00842465	-0.00106873	0
262959	0.00848196	-0.00107739	0
263139	0.00844375	-0.00105516	0
263319	0.00853928	-0.00105089	0
263499	0.00846286	-0.00106172	0
263679	0.00842465	-0.00105955	0
263859	0.00844375	-0.00107331	0
263901	0.00852017	-0.00105898	0