File: EXPERIMENTAL/Data/Battery-cycling/JP-measurements/T-cell/2024-04-26_JP-A2-04_T-cell_Li-Cu_1-mm-PP-spacer_75muL-4MLiFSI-DME_inside-glovebox_added-OCV-0.1s_04_CP_C10.txt
time/s	Ewe/V	I/mA	error
52845	-0.0286319	-0.194647	0
52845	-0.0611848	-0.195959	0
52845	-0.0772965	-0.195968	0
52845	-0.0865366	-0.195976	0
52845	-0.0926075	-0.195979	0
52845	-0.0969412	-0.195975	0
52845	-0.100015	-0.195984	0
52845	-0.102287	-0.195983	0
52845	-0.104139	-0.195987	0
52845	-0.105819	-0.195989	0
52845	-0.107059	-0.195986	0
52845	-0.108339	-0.195981	0
52845	-0.109408	-0.195986	0
52845	-0.111355	-0.195978	0
52845	-0.11271	-0.195983	0
52845	-0.114333	-0.195979	0
52845	-0.115612	-0.195979	0
52845	-0.116815	-0.195989	0
52845	-0.117941	-0.195984	0
52845	-0.119068	-0.195986	0
52845	-0.120614	-0.195983	0
52845	-0.121702	-0.195983	0
52845	-0.123115	-0.195983	0
52845	-0.124356	-0.195988	0
52845	-0.125673	-0.195979	0
52845	-0.127105	-0.19598	0
52845	-0.12827	-0.195991	0
52845	-0.129434	-0.195984	0
52845	-0.130599	-0.195987	0
52845	-0.131763	-0.19599	0
52845	-0.133004	-0.195984	0
52845	-0.134398	-0.195982	0
52845	-0.135658	-0.195988	0
52845	-0.136708	-0.195983	0
52845	-0.137777	-0.195989	0
52845	-0.13898	-0.195987	0
52845	-0.140259	-0.195986	0
52845	-0.141442	-0.195988	0
52845	-0.14276	-0.195988	0
52845	-0.143848	-0.195992	0
52845	-0.145051	-0.195987	0
52845	-0.146177	-0.195991	0
52845	-0.147361	-0.195979	0
52845	-0.148582	-0.19598	0
52845	-0.149709	-0.195986	0
52845	-0.150854	-0.195985	0
52845	-0.151923	-0.195987	0
52845	-0.153183	-0.195985	0
52845	-0.154424	-0.195988	0
52845	-0.155551	-0.195984	0
52845	-0.156849	-0.195983	0
52845	-0.157994	-0.19599	0
52845	-0.159025	-0.19599	0
52845	-0.160037	-0.195982	0
52845	-0.161163	-0.195988	0
52845	-0.162385	-0.195984	0
52845	-0.163531	-0.195987	0
52845	-0.164562	-0.195981	0
52845	-0.165688	-0.195988	0
52845	-0.166833	-0.195988	0
52845	-0.167864	-0.195987	0
52845	-0.168895	-0.195986	0
52845	-0.169907	-0.195987	0
52845	-0.170976	-0.195989	0
52845	-0.172007	-0.195987	0
52845	-0.173172	-0.195983	0
52845	-0.174317	-0.195977	0
52845	-0.175463	-0.195984	0
52845	-0.176551	-0.195984	0
52845	-0.177734	-0.195982	0
52845	-0.178803	-0.195986	0
52845	-0.180006	-0.195985	0
52845	-0.181037	-0.195985	0
52845	-0.182125	-0.195986	0
52845	-0.183156	-0.195991	0
52845	-0.184263	-0.195988	0
52845	-0.185275	-0.195985	0
52845	-0.186478	-0.195986	0
52845	-0.187624	-0.195988	0
52845	-0.188693	-0.195988	0
52845	-0.189819	-0.195991	0
52845	-0.19085	-0.19599	0
52845	-0.192034	-0.195989	0
52845	-0.193045	-0.19598	0
52845	-0.194076	-0.195987	0
52845	-0.195107	-0.195984	0
52845	-0.196234	-0.195984	0
52845	-0.197284	-0.195988	0
52845.1	-0.198314	-0.195993	0
52845.1	-0.199498	-0.195981	0
52845.1	-0.200777	-0.195985	0
52845.1	-0.201808	-0.195987	0
52845.1	-0.20282	-0.195981	0
52845.1	-0.204099	-0.195986	0
52845.1	-0.205111	-0.195991	0
52845.1	-0.206142	-0.195984	0
52845.1	-0.207287	-0.195984	0
52845.1	-0.208318	-0.195989	0
52845.1	-0.209368	-0.195983	0
52845.1	-0.210437	-0.195982	0
52845.1	-0.211602	-0.195988	0
52845.1	-0.212633	-0.195982	0
52845.1	-0.213683	-0.195993	0
52845.1	-0.214905	-0.195982	0
52845.1	-0.215955	-0.195987	0
52845.1	-0.217043	-0.195988	0
52845.1	-0.218074	-0.195981	0
52845.1	-0.2192	-0.195987	0
52845.1	-0.220212	-0.195986	0
52845.1	-0.221243	-0.195986	0
52845.1	-0.222255	-0.195991	0
52845.1	-0.223266	-0.195987	0
52845.1	-0.224278	-0.195984	0
52845.1	-0.225328	-0.195993	0
52845.1	-0.226397	-0.19599	0
52845.1	-0.227409	-0.195984	0
52845.1	-0.228459	-0.195985	0
52845.1	-0.2297	-0.195993	0
52845.1	-0.230731	-0.195986	0
52845.1	-0.231915	-0.195984	0
52845.1	-0.233022	-0.195987	0
52845.1	-0.234072	-0.195986	0
52845.1	-0.235084	-0.195986	0
52845.1	-0.236134	-0.195988	0
52845.1	-0.237184	-0.19599	0
52845.1	-0.238215	-0.195984	0
52845.1	-0.239227	-0.195991	0
52845.1	-0.240353	-0.195986	0
52845.1	-0.241365	-0.19599	0
52845.1	-0.242415	-0.195984	0
52845.2	-0.243446	-0.195986	0
52845.2	-0.244515	-0.195984	0
52845.2	-0.245527	-0.195984	0
52845.2	-0.246538	-0.195989	0
52845.2	-0.247741	-0.195985	0
52845.2	-0.248753	-0.195983	0
52845.2	-0.249937	-0.195986	0
52845.2	-0.250967	-0.19599	0
52845.2	-0.252075	-0.195986	0
52845.2	-0.253239	-0.195984	0
52845.2	-0.254251	-0.195991	0
52845.2	-0.255282	-0.195984	0
52845.2	-0.256313	-0.195989	0
52845.2	-0.25742	-0.195989	0
52845.2	-0.258547	-0.195983	0
52845.2	-0.259616	-0.195995	0
52845.2	-0.260704	-0.195983	0
52845.2	-0.261811	-0.195985	0
52845.2	-0.262899	-0.195986	0
52845.2	-0.26393	-0.195988	0
52845.2	-0.26498	-0.195985	0
52845.2	-0.265992	-0.19598	0
52845.3	-0.26708	-0.195987	0
52845.3	-0.268283	-0.19599	0
52845.3	-0.269333	-0.195986	0
52845.3	-0.270402	-0.195984	0
52845.3	-0.271433	-0.195992	0
52845.3	-0.272483	-0.195991	0
52845.3	-0.271471	-0.195983	0
52845.3	-0.270459	-0.195986	0
52845.3	-0.269448	-0.195986	0
52845.4	-0.268436	-0.195987	0
52845.4	-0.267348	-0.195988	0
52845.4	-0.266259	-0.195983	0
52845.4	-0.265248	-0.19599	0
52845.4	-0.264236	-0.195987	0
52845.4	-0.263205	-0.195982	0
52845.4	-0.262136	-0.195991	0
52845.4	-0.261124	-0.195983	0
52845.4	-0.260112	-0.195991	0
52845.4	-0.259043	-0.195986	0
52845.4	-0.257993	-0.195993	0
52845.4	-0.256962	-0.195989	0
52845.4	-0.25595	-0.195984	0
52845.4	-0.254919	-0.19599	0
52845.4	-0.253869	-0.195986	0
52845.4	-0.2528	-0.195991	0
52845.4	-0.25175	-0.195991	0
52845.4	-0.250662	-0.195986	0
52845.4	-0.249517	-0.195986	0
52845.4	-0.24839	-0.195988	0
52845.4	-0.247378	-0.195984	0
52845.4	-0.246328	-0.195987	0
52845.4	-0.24524	-0.195994	0
52845.5	-0.244133	-0.195984	0
52845.5	-0.243121	-0.195987	0
52845.5	-0.242071	-0.195984	0
52845.5	-0.24104	-0.195984	0
52845.5	-0.240009	-0.195983	0
52845.5	-0.238883	-0.195986	0
52845.5	-0.237852	-0.195986	0
52845.5	-0.23684	-0.195989	0
52845.5	-0.23579	-0.195986	0
52845.5	-0.234702	-0.195988	0
52845.5	-0.233556	-0.195988	0
52845.5	-0.232468	-0.195988	0
52845.5	-0.231437	-0.195989	0
52845.5	-0.230406	-0.195988	0
52845.5	-0.229376	-0.195988	0
52845.5	-0.228364	-0.195987	0
52845.5	-0.227276	-0.195989	0
52845.5	-0.226245	-0.195984	0
52845.6	-0.225195	-0.195991	0
52845.6	-0.224145	-0.195988	0
52845.6	-0.223114	-0.195986	0
52845.6	-0.222064	-0.195981	0
52845.6	-0.221033	-0.19599	0
52845.6	-0.219945	-0.195985	0
52845.6	-0.218914	-0.195984	0
52845.6	-0.217902	-0.19599	0
52845.6	-0.216756	-0.195984	0
52845.6	-0.215706	-0.195986	0
52845.6	-0.214656	-0.195983	0
52845.6	-0.213645	-0.195985	0
52845.6	-0.212614	-0.195981	0
52845.6	-0.211545	-0.195985	0
52845.7	-0.210418	-0.195984	0
52845.7	-0.209387	-0.195992	0
52845.7	-0.208375	-0.195984	0
52845.7	-0.207325	-0.195988	0
52845.7	-0.206295	-0.195984	0
52845.7	-0.205283	-0.195984	0
52845.7	-0.204233	-0.195984	0
52845.7	-0.203164	-0.195986	0
52845.7	-0.202133	-0.195986	0
52845.7	-0.201044	-0.195986	0
52845.8	-0.200014	-0.195987	0
52845.8	-0.198944	-0.195987	0
52845.8	-0.197933	-0.195984	0
52845.8	-0.196921	-0.195987	0
52845.8	-0.19589	-0.195984	0
52845.8	-0.194821	-0.195986	0
52845.8	-0.193752	-0.195989	0
52845.8	-0.192702	-0.195986	0
52845.9	-0.19169	-0.19599	0
52845.9	-0.190678	-0.195988	0
52845.9	-0.189647	-0.195986	0
52845.9	-0.188616	-0.195984	0
52845.9	-0.187566	-0.195985	0
52845.9	-0.186554	-0.195981	0
52845.9	-0.185485	-0.195986	0
52846	-0.184473	-0.195983	0
52846	-0.183423	-0.195986	0
52846	-0.182393	-0.195989	0
52846	-0.181323	-0.195982	0
52846.1	-0.180235	-0.195989	0
52846.1	-0.179223	-0.195992	0
52846.1	-0.178173	-0.195984	0
52846.1	-0.177028	-0.195986	0
52846.2	-0.175978	-0.195985	0
52846.2	-0.174966	-0.195986	0
52846.2	-0.173954	-0.195991	0
52846.3	-0.172904	-0.195985	0
52846.3	-0.171893	-0.195983	0
52846.4	-0.170843	-0.195989	0
52846.5	-0.169812	-0.195991	0
52846.5	-0.1688	-0.195992	0
52846.6	-0.167788	-0.195994	0
52846.7	-0.166776	-0.195989	0
52846.9	-0.165726	-0.195986	0
52847	-0.164676	-0.195984	0
52847.3	-0.163626	-0.195981	0
52847.6	-0.162576	-0.195986	0
52848.2	-0.161545	-0.195989	0
52849.1	-0.160533	-0.195985	0
52850.2	-0.159502	-0.195989	0
52851.4	-0.158491	-0.195986	0
52852.3	-0.157479	-0.195986	0
52853.1	-0.156467	-0.195988	0
52853.9	-0.155455	-0.195989	0
52854.5	-0.154405	-0.19599	0
52855.1	-0.153393	-0.195986	0
52855.7	-0.152381	-0.195986	0
52856.3	-0.151351	-0.195988	0
52856.8	-0.150339	-0.195987	0
52857.4	-0.149308	-0.195984	0
52857.9	-0.148296	-0.195983	0
52858.4	-0.147265	-0.195991	0
52859	-0.146196	-0.195986	0
52859.5	-0.145165	-0.195988	0
52860.1	-0.144134	-0.195986	0
52860.6	-0.143065	-0.195988	0
52861.2	-0.142053	-0.195989	0
52861.8	-0.141041	-0.195987	0
52862.3	-0.139934	-0.19599	0
52863	-0.138922	-0.19599	0
52863.6	-0.137911	-0.195988	0
52864.2	-0.136899	-0.19599	0
52864.8	-0.135887	-0.195993	0
52865.5	-0.134875	-0.195989	0
52866.2	-0.133863	-0.195991	0
52866.9	-0.132851	-0.195988	0
52867.6	-0.13184	-0.195983	0
52868.4	-0.13079	-0.195988	0
52869.3	-0.129778	-0.195989	0
52870	-0.128747	-0.195982	0
52871	-0.127697	-0.195988	0
52872	-0.126685	-0.195987	0
52873	-0.125673	-0.19599	0
52874	-0.124642	-0.195985	0
52875.2	-0.12363	-0.195987	0
52876.3	-0.1226	-0.195986	0
52877.7	-0.121588	-0.195989	0
52878.9	-0.120576	-0.19599	0
52880.4	-0.119564	-0.195984	0
52882	-0.118495	-0.195993	0
52883.7	-0.117464	-0.195986	0
52885.5	-0.116452	-0.19599	0
52887.3	-0.11544	-0.195991	0
52889.4	-0.114429	-0.195988	0
52891.5	-0.113417	-0.195986	0
52894.1	-0.112386	-0.195993	0
52896.6	-0.111374	-0.19599	0
52899.7	-0.110343	-0.195986	0
52902.7	-0.109293	-0.195988	0
52906.3	-0.108243	-0.195986	0
52910.5	-0.107231	-0.195987	0
52914.4	-0.106219	-0.195985	0
52919	-0.105189	-0.195988	0
52924.7	-0.104177	-0.195984	0
52930.4	-0.103165	-0.195988	0
52936.8	-0.102134	-0.195989	0
52944	-0.101122	-0.195988	0
52952.5	-0.10011	-0.195989	0
52961.7	-0.0990985	-0.195985	0
52971.7	-0.0982585	-0.195991	0
52981.7	-0.0974376	-0.19599	0
52991.7	-0.0968267	-0.195993	0
53001.7	-0.0961203	-0.195991	0
53011.7	-0.0955666	-0.195988	0
53021.7	-0.0951085	-0.195986	0
53031.7	-0.094803	-0.195991	0
53041.7	-0.0943639	-0.195986	0
53051.7	-0.0938485	-0.195987	0
53061.7	-0.093543	-0.19599	0
53071.7	-0.0933521	-0.195992	0
53081.7	-0.0928557	-0.195995	0
53091.7	-0.0928175	-0.195985	0
53101.7	-0.092703	-0.195988	0
53111.7	-0.0923403	-0.195988	0
53121.7	-0.0923212	-0.19599	0
53131.7	-0.0921112	-0.195989	0
53141.7	-0.0920921	-0.195987	0
53151.7	-0.0919966	-0.19599	0
53161.7	-0.0920348	-0.195991	0
53171.7	-0.0916339	-0.195991	0
53181.7	-0.0916912	-0.195988	0
53191.7	-0.0915957	-0.195989	0
53201.7	-0.0915766	-0.195992	0
53211.7	-0.0914621	-0.19599	0
53221.7	-0.091443	-0.195988	0
53231.7	-0.0912903	-0.195988	0
53241.7	-0.0913284	-0.19599	0
53251.7	-0.0911948	-0.195984	0
53261.7	-0.0911948	-0.195991	0
53271.7	-0.0912139	-0.19599	0
53281.7	-0.0910421	-0.195988	0
53291.7	-0.0910803	-0.195991	0
53301.7	-0.0911184	-0.195986	0
53311.7	-0.0911566	-0.195979	0
53321.7	-0.091023	-0.195988	0
53331.7	-0.0911375	-0.195988	0
53341.7	-0.0910803	-0.19599	0
53351.7	-0.0910612	-0.195989	0
53361.7	-0.0911184	-0.195984	0
53371.7	-0.0909466	-0.195986	0
53381.7	-0.0908703	-0.195994	0
53391.7	-0.0909275	-0.195986	0
53401.7	-0.0910421	-0.195991	0
53411.7	-0.0908893	-0.195993	0
53421.7	-0.091023	-0.195988	0
53431.7	-0.0910039	-0.195991	0
53441.7	-0.0907748	-0.195986	0
53451.7	-0.0908703	-0.195984	0
53461.7	-0.0909084	-0.195989	0
53471.7	-0.0909084	-0.195985	0
53481.7	-0.0909275	-0.195988	0
53491.7	-0.0908703	-0.195986	0
53501.7	-0.0909275	-0.195984	0
53511.7	-0.0909657	-0.195991	0
53521.7	-0.0909466	-0.195983	0
53531.7	-0.0908703	-0.195983	0
53541.7	-0.0910039	-0.195985	0
53551.7	-0.0909657	-0.195983	0
53561.7	-0.090813	-0.195986	0
53571.7	-0.0908512	-0.195983	0
53581.7	-0.090813	-0.195988	0
53591.7	-0.0907366	-0.195986	0
53601.7	-0.090813	-0.195987	0
53611.7	-0.090813	-0.195983	0
53621.7	-0.0907748	-0.19599	0
53631.7	-0.0907366	-0.195988	0
53641.7	-0.0907175	-0.19599	0
53651.7	-0.0907175	-0.195993	0
53661.7	-0.0907939	-0.19599	0
53671.7	-0.0907366	-0.195983	0
53681.7	-0.0908321	-0.195986	0
53691.7	-0.0905839	-0.195988	0
53701.7	-0.090603	-0.195989	0
53711.7	-0.0907748	-0.195993	0
53721.7	-0.0906412	-0.19599	0
53731.7	-0.0907366	-0.195985	0
53741.7	-0.0905839	-0.195979	0
53751.7	-0.0905266	-0.195991	0
53761.7	-0.0906793	-0.195991	0
53771.7	-0.0906221	-0.195989	0
53781.7	-0.0906221	-0.195989	0
53791.7	-0.090603	-0.195988	0
53801.7	-0.0905839	-0.195991	0
53811.7	-0.0905839	-0.195986	0
53821.7	-0.0905075	-0.195988	0
53831.7	-0.0904693	-0.195986	0
53841.7	-0.0904312	-0.195992	0
53851.7	-0.0905075	-0.195985	0
53861.7	-0.090603	-0.195986	0
53871.7	-0.0904693	-0.195986	0
53881.7	-0.0903548	-0.195991	0
53891.7	-0.0904502	-0.19599	0
53901.7	-0.0903548	-0.195995	0
53911.7	-0.0903739	-0.195991	0
53921.7	-0.0902784	-0.195983	0
53931.7	-0.0902021	-0.195988	0
53941.7	-0.090393	-0.195988	0
53951.7	-0.0905075	-0.195991	0
53961.7	-0.0903166	-0.195986	0
53971.7	-0.0903548	-0.19599	0
53981.7	-0.0902784	-0.195984	0
53991.7	-0.0902975	-0.195993	0
54001.7	-0.0903357	-0.195988	0
54011.7	-0.0903548	-0.195983	0
54021.7	-0.0903166	-0.195985	0
54031.7	-0.0902212	-0.195981	0
54041.7	-0.0903166	-0.195989	0
54051.7	-0.0902593	-0.195992	0
54061.7	-0.0902593	-0.195986	0
54071.7	-0.0902593	-0.195985	0
54081.7	-0.0902975	-0.195991	0
54091.7	-0.0902212	-0.195985	0
54101.7	-0.0902402	-0.195987	0
54111.7	-0.0902593	-0.195987	0
54121.7	-0.0902212	-0.19599	0
54131.7	-0.0901639	-0.195988	0
54141.7	-0.0901448	-0.195993	0
54151.7	-0.0902021	-0.195984	0
54161.7	-0.0901257	-0.195986	0
54171.7	-0.0902784	-0.195993	0
54177.7	-0.0892666	-0.195987	0
54177.7	-0.0902784	-0.195989	0
54187.7	-0.0901639	-0.195988	0
54197.7	-0.0902021	-0.195986	0
54207.7	-0.0900875	-0.195988	0
54217.7	-0.090183	-0.195991	0
54227.7	-0.0901066	-0.195985	0
54237.7	-0.0901448	-0.195985	0
54247.7	-0.0901448	-0.195987	0
54257.7	-0.0900875	-0.195994	0
54267.7	-0.0900875	-0.195991	0
54277.7	-0.0901066	-0.195983	0
54287.7	-0.089973	-0.195989	0
54297.7	-0.0902593	-0.195988	0
54307.7	-0.0899921	-0.195989	0
54317.7	-0.0900875	-0.195986	0
54327.7	-0.0899348	-0.195989	0
54337.7	-0.0900493	-0.19599	0
54347.7	-0.0899539	-0.19599	0
54357.7	-0.0900112	-0.195988	0
54367.7	-0.0899157	-0.195989	0
54377.7	-0.0899921	-0.195987	0
54387.7	-0.089973	-0.195989	0
54397.7	-0.0900493	-0.195988	0
54407.7	-0.0899921	-0.195983	0
54417.7	-0.0900302	-0.195986	0
54427.7	-0.0898966	-0.195992	0
54437.7	-0.0899348	-0.19599	0
54447.7	-0.0900112	-0.195982	0
54457.7	-0.0900112	-0.195986	0
54467.7	-0.089973	-0.195983	0
54477.7	-0.0899539	-0.195993	0
54487.7	-0.0898584	-0.195991	0
54497.7	-0.089973	-0.195987	0
54507.7	-0.0899348	-0.195986	0
54517.7	-0.0900112	-0.195992	0
54527.7	-0.0898966	-0.195988	0
54537.7	-0.0899157	-0.195991	0
54547.7	-0.0899157	-0.195985	0
54557.7	-0.0898966	-0.195984	0
54567.7	-0.0900493	-0.19599	0
54577.7	-0.0898775	-0.195992	0
54587.7	-0.089973	-0.195983	0
54597.7	-0.0898393	-0.195986	0
54607.7	-0.0898966	-0.195987	0
54617.7	-0.0899157	-0.195988	0
54627.7	-0.0897248	-0.195988	0
54637.7	-0.0898775	-0.195983	0
54645	-0.0897821	-0.195988	0