File: EXPERIMENTAL/Data/Battery-cycling/JP-measurements/T-cell/2024-04-22_JP-A2_T-cell_Li-Cu_1-mm-PP-spacer_75muL-4MLiFSI-DME_inside-glovebox_02_MB_C10.txt
time/s	Ewe/V	I/mA	error
60.053	3.04658	-0.0250155	0
60.1448	0.00861248	-7.8547	0
60.1472	0.00866975	-7.69845	0
60.15	0.00876521	-7.52391	0
60.153	0.00863157	-7.34408	0
60.156	0.00876521	-7.17125	0
60.159	0.0085743	-7.00563	0
60.162	0.00866975	-6.84543	0
60.165	0.00861248	-6.69185	0
60.1686	0.00872702	-6.51419	0
60.1722	0.00865066	-6.34372	0
60.1758	0.00859339	-6.18008	0
60.1794	0.00876521	-6.02516	0
60.1832	0.00866975	-5.86706	0
60.1874	0.00866975	-5.70106	0
60.1916	0.00865066	-5.54238	0
60.1962	0.00865066	-5.37689	0
60.201	0.0085743	-5.21662	0
60.206	0.00863157	-5.05738	0
60.2114	0.00868884	-4.89711	0
60.2172	0.00865066	-4.73773	0
60.2234	0.00870793	-4.57963	0
60.23	0.00870793	-4.42395	0
60.2372	0.00868884	-4.26776	0
60.2452	0.00874612	-4.10991	0
60.2538	0.00866975	-3.95519	0
60.2636	0.00868884	-3.79652	0
60.274	0.00874612	-3.646	0
60.2858	0.00863157	-3.49229	0
60.299	0.00861248	-3.33923	0
60.314	0.00865066	-3.18648	0
60.331	0.00880339	-3.03462	0
60.3502	0.00876521	-2.88366	0
60.3726	0.00861248	-2.73212	0
60.3986	0.0085743	-2.58046	0
60.429	0.00866975	-2.42873	0
60.4648	0.00865066	-2.27751	0
60.5074	0.00872702	-2.12572	0
60.5586	0.00868884	-1.97462	0
60.6208	0.00868884	-1.82385	0
60.6976	0.00865066	-1.67314	0
60.7946	0.00855521	-1.5225	0
60.921	0.00859339	-1.37172	0
61.0884	0.00872702	-1.22102	0
61.3184	0.00863157	-1.07043	0
61.6516	0.00874612	-0.919788	0
62.1668	0.00868884	-0.76876	0
63.0484	0.00861248	-0.618179	0
64.8066	0.00872702	-0.467788	0
66.2888	0.00874612	-0.404551	0
75.1162	0.00874612	-0.254441	0
103.915	0.00874612	-0.155619	0
133.915	0.00865066	-0.123847	0
163.915	0.0085743	-0.106456	0
193.915	0.00882248	-0.0952314	0
223.915	0.00865066	-0.0870355	0
253.915	0.00870793	-0.0807995	0
283.915	0.00866975	-0.0756325	0
313.915	0.00872702	-0.0714009	0
343.915	0.00874612	-0.0676911	0
373.915	0.00866975	-0.0646876	0
403.915	0.00870793	-0.0619514	0
433.915	0.00870793	-0.0594125	0
463.915	0.00870793	-0.0572426	0
493.915	0.00876521	-0.0551872	0
523.915	0.00874612	-0.0534119	0
553.915	0.00859339	-0.0516365	0
583.915	0.00874612	-0.0500712	0
613.915	0.00861248	-0.0486267	0
643.915	0.00870793	-0.0473604	0
673.915	0.00861248	-0.0459223	0
703.915	0.00882248	-0.045268	0
733.915	0.00872702	-0.0441247	0
763.915	0.00868884	-0.0430857	0
793.915	0.00868884	-0.0421542	0
823.915	0.00874612	-0.0412246	0
853.915	0.00870793	-0.0403409	0
883.915	0.00874612	-0.039564	0
913.915	0.00872702	-0.0388075	0
943.915	0.00876521	-0.0379867	0
973.915	0.00863157	-0.0373142	0
1003.91	0.00874612	-0.0366366	0
1033.91	0.00861248	-0.0359418	0
1063.91	0.00870793	-0.0353565	0
1093.91	0.00872702	-0.0347622	0
1123.91	0.0087843	-0.0342564	0
1153.91	0.00870793	-0.0337092	0
1183.91	0.00870793	-0.0332517	0
1213.91	0.00866975	-0.0327154	0
1243.91	0.00866975	-0.0322095	0
1273.91	0.00884157	-0.0317438	0
1303.91	0.00874612	-0.0313487	0
1333.91	0.00861248	-0.0309351	0
1363.91	0.00866975	-0.0305133	0
1393.91	0.00876521	-0.0300972	0
1423.91	0.00865066	-0.0297307	0
1453.91	0.00872702	-0.0293604	0
1483.91	0.00876521	-0.028929	0
1513.91	0.00861248	-0.028462	0
1543.91	0.00872702	-0.0280415	0
1573.91	0.00866975	-0.0277087	0
1603.91	0.00870793	-0.0273219	0
1633.91	0.00868884	-0.0270355	0
1663.91	0.00866975	-0.02665	0
1693.91	0.00880339	-0.026377	0
1723.91	0.00872702	-0.02612	0
1753.91	0.00870793	-0.0258935	0
1783.91	0.00868884	-0.0256141	0
1813.91	0.00865066	-0.0253997	0
1843.91	0.00861248	-0.0251471	0
1873.91	0.00876521	-0.0243117	0
1903.91	0.00876521	-0.0231544	0
1933.91	0.00872702	-0.0230882	0
1963.91	0.00870793	-0.0229909	0
1993.91	0.00884157	-0.0227898	0
2023.91	0.00874612	-0.0225372	0
2053.91	0.00876521	-0.0224431	0
2083.91	0.0087843	-0.0221752	0
2113.91	0.00865066	-0.0220384	0
2143.91	0.00868884	-0.0218329	0
2173.91	0.00868884	-0.0216923	0
2203.91	0.00874612	-0.021476	0
2233.91	0.00870793	-0.0213805	0
2263.91	0.00868884	-0.0212272	0
2293.91	0.00870793	-0.0210102	0
2323.91	0.00872702	-0.0208931	0
2353.91	0.0087843	-0.0207373	0
2383.91	0.00868884	-0.0205763	0
2413.91	0.00874612	-0.020442	0
2443.91	0.00872702	-0.0202976	0
2473.91	0.00872702	-0.0202149	0
2503.91	0.00872702	-0.0200724	0
2533.91	0.00865066	-0.01994	0
2563.91	0.00865066	-0.0198408	0
2593.91	0.00870793	-0.0196963	0
2623.91	0.00876521	-0.0201608	0
2653.91	0.00866975	-0.0199337	0
2683.91	0.00861248	-0.0197873	0
2713.91	0.00872702	-0.0197142	0
2743.91	0.00868884	-0.0195602	0
2773.91	0.00861248	-0.0193967	0
2803.91	0.00866975	-0.0192911	0
2833.91	0.00874612	-0.0192211	0
2863.91	0.00866975	-0.019111	0
2893.91	0.00874612	-0.019013	0
2923.91	0.00872702	-0.0189029	0
2953.91	0.00870793	-0.0187827	0
2983.91	0.00861248	-0.0186841	0
3013.91	0.00872702	-0.0185855	0
3043.91	0.00876521	-0.0184607	0
3073.91	0.0087843	-0.0184111	0
3103.91	0.00868884	-0.0182457	0
3133.91	0.00866975	-0.0181852	0
3163.91	0.00874612	-0.0180682	0
3193.91	0.00884157	-0.017988	0
3223.91	0.00866975	-0.0179091	0
3253.91	0.00868884	-0.0178149	0
3283.91	0.00880339	-0.0177112	0
3313.91	0.00866975	-0.0176171	0
3343.91	0.00872702	-0.0175624	0
3373.91	0.00861248	-0.0174459	0
3403.91	0.00870793	-0.0173804	0
3433.91	0.00870793	-0.0172799	0
3463.91	0.00872702	-0.0172754	0
3493.91	0.00866975	-0.0171698	0
3523.91	0.00866975	-0.0170909	0
3553.91	0.00872702	-0.0169961	0
3583.91	0.00868884	-0.0168701	0
3613.91	0.00865066	-0.0168237	0
3643.91	0.00872702	-0.0167556	0
3673.91	0.00868884	-0.0167079	0
3703.91	0.00876521	-0.0166411	0
3733.91	0.00868884	-0.0165972	0
3763.91	0.00868884	-0.0165234	0
3793.91	0.00865066	-0.0164368	0
3823.91	0.00865066	-0.0163344	0
3853.91	0.00870793	-0.0163019	0
3883.91	0.00874612	-0.0162669	0
3913.91	0.00876521	-0.0162116	0
3943.91	0.00870793	-0.0161009	0
3973.91	0.00865066	-0.0160474	0
4003.91	0.00866975	-0.0159666	0
4033.91	0.00868884	-0.0159304	0
4063.91	0.00874612	-0.0158438	0
4093.91	0.00861248	-0.015791	0
4123.91	0.00874612	-0.015721	0
4153.91	0.00866975	-0.015658	0
4183.91	0.00866975	-0.0156332	0
4213.91	0.00868884	-0.0155174	0
4243.91	0.00872702	-0.0155162	0
4273.91	0.00868884	-0.0154684	0
4303.91	0.00872702	-0.0153781	0
4333.91	0.00863157	-0.0153565	0
4363.91	0.00872702	-0.0153132	0
4393.91	0.00870793	-0.0152375	0
4423.91	0.00866975	-0.0151713	0
4453.91	0.00868884	-0.0151395	0
4483.91	0.00865066	-0.0150612	0
4513.91	0.00863157	-0.0150072	0
4543.91	0.00866975	-0.0150173	0
4573.91	0.00882248	-0.0149155	0
4603.91	0.00865066	-0.0148659	0
4633.91	0.00866975	-0.0148188	0
4663.91	0.00872702	-0.0147393	0
4693.91	0.00868884	-0.014731	0
4723.91	0.00866975	-0.0146712	0
4753.91	0.00874612	-0.0145491	0
4783.91	0.00872702	-0.0145751	0
4813.91	0.00874612	-0.0145446	0
4843.91	0.00872702	-0.0144982	0
4873.91	0.0087843	-0.0144205	0
4903.91	0.00866975	-0.014369	0
4933.91	0.00874612	-0.0143308	0
4963.91	0.00868884	-0.0142322	0
4993.91	0.00870793	-0.0142036	0
5023.91	0.00870793	-0.0141947	0
5053.91	0.00868884	-0.014145	0
5083.91	0.00866975	-0.0141196	0
5113.91	0.00866975	-0.0140903	0
5143.91	0.00872702	-0.0140235	0
5173.91	0.00880339	-0.0139548	0
5203.91	0.0087843	-0.0139192	0
5233.91	0.00870793	-0.0138549	0
5263.91	0.00859339	-0.0138861	0
5293.91	0.00876521	-0.0138403	0
5323.91	0.00866975	-0.0137499	0
5353.91	0.00866975	-0.0137289	0
5383.91	0.00863157	-0.0137143	0
5413.91	0.00876521	-0.0136297	0
5443.91	0.00868884	-0.0136189	0
5473.91	0.0087843	-0.0135641	0
5503.91	0.00866975	-0.0135508	0
5533.91	0.00866975	-0.0135145	0
5563.91	0.00868884	-0.0134636	0
5593.91	0.00880339	-0.0133656	0
5623.91	0.00865066	-0.0134223	0
5653.91	0.00870793	-0.0133376	0
5683.91	0.00876521	-0.0133033	0
5713.91	0.00863157	-0.0132498	0
5743.91	0.00868884	-0.0132696	0
5773.91	0.0087843	-0.0131989	0
5803.91	0.00874612	-0.0130348	0
5833.91	0.00870793	-0.0130583	0
5863.91	0.00872702	-0.0130195	0
5893.91	0.0087843	-0.0129559	0
5923.91	0.00865066	-0.0129508	0
5953.91	0.00870793	-0.012912	0
5983.91	0.00876521	-0.0128649	0
6013.91	0.00868884	-0.0128471	0
6043.91	0.00865066	-0.012842	0
6073.91	0.00861248	-0.0128115	0
6103.91	0.00874612	-0.0127357	0
6133.91	0.00870793	-0.0127478	0
6163.91	0.0087843	-0.012695	0
6193.91	0.00874612	-0.0126428	0
6223.91	0.00880339	-0.0126352	0
6253.91	0.0087843	-0.0125589	0
6283.91	0.00868884	-0.012583	0
6313.91	0.00874612	-0.0129043	0
6343.91	0.00859339	-0.0127949	0
6373.91	0.00863157	-0.0127357	0
6403.91	0.00866975	-0.0127205	0
6433.91	0.00866975	-0.01273	0
6463.91	0.00866975	-0.0127033	0
6493.91	0.0087843	-0.0126492	0
6523.91	0.00863157	-0.0126276	0
6553.91	0.00868884	-0.012562	0
6583.91	0.00872702	-0.0125461	0
6613.91	0.00861248	-0.0125773	0
6643.91	0.00874612	-0.012506	0
6673.91	0.00870793	-0.0124329	0
6703.91	0.00872702	-0.0124049	0
6733.91	0.00870793	-0.0123966	0
6763.91	0.00870793	-0.0123317	0
6793.91	0.00872702	-0.0123362	0
6823.91	0.00866975	-0.012361	0
6853.91	0.00868884	-0.0123094	0
6883.91	0.00876521	-0.0123012	0
6913.91	0.00870793	-0.0122006	0
6943.91	0.00866975	-0.0122064	0
6973.91	0.00870793	-0.0122026	0
7003.91	0.00880339	-0.0121739	0
7033.91	0.00865066	-0.0120893	0
7063.91	0.00874612	-0.0121517	0
7093.91	0.00874612	-0.0121281	0
7123.91	0.00880339	-0.0120759	0
7153.91	0.00870793	-0.0119926	0
7183.91	0.00872702	-0.0120289	0
7213.91	0.00866975	-0.0119996	0
7243.91	0.0087843	-0.0119576	0
7273.91	0.00866975	-0.0119595	0
7303.91	0.00868884	-0.0118806	0
7333.91	0.00870793	-0.0118952	0
7363.91	0.00874612	-0.0118469	0
7393.91	0.0087843	-0.0118405	0
7423.91	0.00868884	-0.011817	0
7453.91	0.00872702	-0.0118106	0
7483.91	0.00868884	-0.0117559	0
7513.91	0.00865066	-0.0117311	0
7543.91	0.00880339	-0.0117432	0
7573.91	0.00876521	-0.0116668	0
7603.91	0.00874612	-0.0116687	0
7633.91	0.00874612	-0.0116127	0
7663.91	0.00866975	-0.0116229	0
7693.91	0.00872702	-0.0116178	0
7723.91	0.00868884	-0.0115924	0
7753.91	0.00865066	-0.0115281	0
7783.91	0.00868884	-0.0115033	0
7813.91	0.00866975	-0.0114804	0
7843.91	0.00861248	-0.0114467	0
7873.91	0.00861248	-0.0114569	0
7903.91	0.00874612	-0.0114473	0
7933.91	0.00861248	-0.0113913	0
7963.91	0.00874612	-0.0113659	0
7993.91	0.00859339	-0.0114009	0
8023.91	0.00874612	-0.0113474	0
8053.91	0.00870793	-0.011287	0
8083.91	0.00868884	-0.0113474	0
8113.91	0.00861248	-0.0112787	0
8143.91	0.00866975	-0.011301	0
8173.91	0.00872702	-0.0112463	0
8203.91	0.00876521	-0.0112463	0
8233.91	0.00865066	-0.0112075	0
8263.91	0.00870793	-0.0111534	0
8293.91	0.00872702	-0.0111725	0
8323.91	0.00872702	-0.0111146	0
8353.91	0.00870793	-0.0111311	0
8383.91	0.00870793	-0.0111464	0
8413.91	0.00865066	-0.0111006	0
8443.91	0.00874612	-0.0110796	0
8473.91	0.00859339	-0.0110688	0
8503.91	0.00865066	-0.0110185	0
8533.91	0.00876521	-0.0109752	0
8563.91	0.00865066	-0.010972	0
8593.91	0.00868884	-0.0109848	0
8623.91	0.00866975	-0.0109103	0
8653.91	0.0087843	-0.0109453	0
8683.91	0.00874612	-0.0109288	0
8713.91	0.00872702	-0.0108963	0
8743.91	0.00866975	-0.010848	0
8773.91	0.00865066	-0.0108524	0
8803.91	0.00872702	-0.0108123	0
8833.91	0.00865066	-0.0107945	0
8863.91	0.00868884	-0.0107296	0
8893.91	0.00865066	-0.0107748	0
8923.91	0.00868884	-0.0107455	0
8953.91	0.00865066	-0.0107487	0
8983.91	0.00863157	-0.0107194	0
9013.91	0.00868884	-0.010673	0
9043.91	0.00866975	-0.0107099	0
9073.91	0.0087843	-0.0106431	0
9103.91	0.00866975	-0.0106202	0
9133.91	0.00859339	-0.0106145	0
9163.91	0.00865066	-0.0106049	0
9193.91	0.00870793	-0.0105718	0
9223.91	0.00868884	-0.0106068	0
9253.91	0.00866975	-0.0105916	0
9283.91	0.00865066	-0.0105069	0
9313.91	0.00872702	-0.0105127	0
9343.91	0.00865066	-0.0104796	0
9373.91	0.00870793	-0.0104586	0
9403.91	0.00876521	-0.0104389	0
9433.91	0.00872702	-0.010416	0
9463.91	0.00861248	-0.0104274	0
9493.91	0.00868884	-0.0104389	0
9523.91	0.00868884	-0.0104166	0
9553.91	0.0087843	-0.0103434	0
9583.91	0.00870793	-0.0103733	0
9613.91	0.00876521	-0.0103568	0
9643.91	0.00874612	-0.010304	0
9673.91	0.00866975	-0.0103218	0
9703.91	0.00870793	-0.0102626	0
9733.91	0.00880339	-0.010276	0
9763.91	0.00880339	-0.0102753	0
9793.91	0.00866975	-0.0102429	0
9823.91	0.00882248	-0.010241	0
9853.91	0.00870793	-0.0102518	0
9883.91	0.00874612	-0.0102174	0
9913.91	0.00874612	-0.0102047	0
9943.91	0.00861248	-0.0101812	0
9973.91	0.00868884	-0.0101538	0
10003.9	0.00861248	-0.0101436	0
10033.9	0.00866975	-0.0101156	0
10063.9	0.00863157	-0.0101258	0
10093.9	0.00874612	-0.0101061	0
10123.9	0.00876521	-0.0100857	0
10153.9	0.00870793	-0.0100966	0
10183.9	0.00870793	-0.0100686	0
10213.9	0.00872702	-0.0100119	0
10243.9	0.00859339	-0.0100476	0
10273.9	0.00863157	-0.00996103	0
10303.9	0.00866975	-0.00997503	0
10333.9	0.00870793	-0.00996294	0
10363.9	0.00868884	-0.00993876	0
10393.9	0.00865066	-0.00994131	0
10423.9	0.00861248	-0.00989168	0
10453.9	0.00876521	-0.00992349	0
10483.9	0.00872702	-0.00987005	0
10513.9	0.00865066	-0.00981915	0
10543.9	0.00876521	-0.00983315	0
10573.9	0.00870793	-0.0098236	0
10603.9	0.00870793	-0.00985796	0
10633.9	0.00872702	-0.0098007	0
10663.9	0.00876521	-0.00980388	0
10693.9	0.00874612	-0.00980133	0
10723.9	0.00865066	-0.00975361	0
10753.9	0.00882248	-0.00977207	0
10783.9	0.00865066	-0.00975616	0
10813.9	0.00870793	-0.00971417	0
10843.9	0.00870793	-0.0096709	0
10873.9	0.00876521	-0.00969444	0
10903.9	0.00870793	-0.00970462	0
10933.9	0.00866975	-0.00969444	0
10963.9	0.00868884	-0.00962636	0
10993.9	0.00866975	-0.00965245	0
11023.9	0.00872702	-0.00965945	0
11053.9	0.00863157	-0.00963273	0
11083.9	0.00870793	-0.00956338	0
11113.9	0.00874612	-0.0095462	0
11143.9	0.00876521	-0.00955574	0
11173.9	0.00870793	-0.00957165	0
11203.9	0.00866975	-0.00953665	0
11233.9	0.0087843	-0.0095532	0
11263.9	0.00863157	-0.00953665	0
11293.9	0.00866975	-0.00947812	0
11323.9	0.00876521	-0.00950357	0
11353.9	0.00882248	-0.00943421	0
11383.9	0.00863157	-0.00945012	0
11413.9	0.00868884	-0.00940877	0
11443.9	0.00866975	-0.00940049	0
11473.9	0.00863157	-0.00936296	0
11503.9	0.00868884	-0.00939986	0
11533.9	0.00859339	-0.00938395	0
11563.9	0.00868884	-0.0093445	0
11593.9	0.00863157	-0.00934069	0
11623.9	0.00872702	-0.00934832	0
11653.9	0.00870793	-0.0093146	0
11683.9	0.00870793	-0.00929933	0
11713.9	0.00870793	-0.00930315	0
11743.9	0.00861248	-0.00923252	0
11773.9	0.00866975	-0.00921662	0
11803.9	0.00874612	-0.0092268	0
11833.9	0.00866975	-0.00919626	0
11863.9	0.00859339	-0.0091619	0
11893.9	0.00868884	-0.00921789	0
11923.9	0.00866975	-0.00915045	0
11953.9	0.00868884	-0.00918162	0
11983.9	0.00868884	-0.00913772	0
12013.9	0.00866975	-0.00911482	0
12043.9	0.00870793	-0.00911163	0
12073.9	0.00866975	-0.00913772	0
12103.9	0.00870793	-0.00912309	0
12133.9	0.00870793	-0.00905055	0
12163.9	0.00861248	-0.00905437	0
12193.9	0.00868884	-0.00904674	0
12223.9	0.00872702	-0.00902701	0
12253.9	0.00866975	-0.0089812	0
12283.9	0.00866975	-0.00900474	0
12313.9	0.00872702	-0.00900983	0
12343.9	0.00876521	-0.00895957	0
12373.9	0.00863157	-0.00897866	0
12403.9	0.00865066	-0.0089723	0
12433.9	0.00866975	-0.00892203	0
12463.9	0.00874612	-0.00889658	0
12493.9	0.00866975	-0.00889722	0
12523.9	0.00868884	-0.00891949	0
12553.9	0.00866975	-0.00887113	0
12583.9	0.00868884	-0.00884759	0
12613.9	0.00868884	-0.00887431	0
12643.9	0.00868884	-0.00883614	0
12673.9	0.00868884	-0.00880878	0
12703.9	0.00865066	-0.00883741	0
12733.9	0.00872702	-0.00876933	0
12763.9	0.00859339	-0.00878206	0
12793.9	0.00865066	-0.00869552	0
12823.9	0.00870793	-0.00872034	0
12853.9	0.00876521	-0.00873879	0
12883.9	0.00874612	-0.00870443	0
12913.9	0.00868884	-0.00869871	0
12943.9	0.00868884	-0.00867962	0
12973.9	0.00880339	-0.00869489	0
13003.9	0.00866975	-0.00862363	0
13033.9	0.00868884	-0.00867262	0
13063.9	0.00872702	-0.00860072	0
13093.9	0.00866975	-0.00858673	0
13123.9	0.00866975	-0.00859627	0
13153.9	0.00863157	-0.00855809	0
13183.9	0.00870793	-0.008567	0
13213.9	0.00876521	-0.00857018	0
13243.9	0.00872702	-0.0085511	0
13273.9	0.00868884	-0.00850528	0
13303.9	0.00872702	-0.00853964	0
13333.9	0.00865066	-0.00852501	0
13363.9	0.0085743	-0.00849256	0
13393.9	0.00870793	-0.00849001	0
13423.9	0.00874612	-0.00844929	0
13453.9	0.00872702	-0.00847156	0
13483.9	0.00870793	-0.00842194	0
13513.9	0.00872702	-0.00844166	0
13543.9	0.00872702	-0.00837358	0
13573.9	0.00870793	-0.00836467	0
13603.9	0.00863157	-0.00843021	0
13633.9	0.00868884	-0.00835131	0
13663.9	0.00866975	-0.00834622	0
13693.9	0.00876521	-0.00833541	0
13723.9	0.00865066	-0.00834813	0
13753.9	0.00872702	-0.0083265	0
13783.9	0.00868884	-0.0082686	0
13813.9	0.00870793	-0.00832395	0
13843.9	0.00870793	-0.00830868	0
13873.9	0.00863157	-0.00825715	0
13903.9	0.00872702	-0.00823615	0
13933.9	0.00865066	-0.00822533	0
13963.9	0.00870793	-0.00824315	0
13993.9	0.00872702	-0.00823106	0
14023.9	0.00870793	-0.0081827	0
14053.9	0.00872702	-0.00817571	0
14083.9	0.00870793	-0.00820306	0
14113.9	0.00866975	-0.00818334	0
14143.9	0.00870793	-0.00817507	0
14173.9	0.00872702	-0.00813753	0
14203.9	0.00874612	-0.00811781	0
14233.9	0.00866975	-0.00811653	0
14263.9	0.00870793	-0.00812226	0
14293.9	0.00868884	-0.00811081	0
14323.9	0.00874612	-0.00808281	0
14353.9	0.0087843	-0.00804082	0
14383.9	0.00859339	-0.00811144	0
14413.9	0.0087843	-0.00809681	0
14443.9	0.00874612	-0.00805609	0
14473.9	0.00866975	-0.00805482	0
14503.9	0.00870793	-0.00800201	0
14533.9	0.0085743	-0.00804146	0
14563.9	0.00859339	-0.00794984	0
14593.9	0.00866975	-0.00799883	0
14623.9	0.00872702	-0.00798865	0
14653.9	0.00868884	-0.00793775	0
14683.9	0.00863157	-0.00797656	0
14713.9	0.00863157	-0.00795938	0
14743.9	0.00880339	-0.00797974	0
14773.9	0.00865066	-0.00794729	0
14803.9	0.00876521	-0.00789703	0
14833.9	0.00870793	-0.00792566	0
14863.9	0.00870793	-0.00786521	0
14893.9	0.00866975	-0.00789321	0
14923.9	0.00861248	-0.00788112	0
14953.9	0.00868884	-0.00787794	0
14983.9	0.00870793	-0.00789194	0
15013.9	0.00866975	-0.00785058	0
15043.9	0.00880339	-0.00780032	0
15073.9	0.00866975	-0.00779904	0
15103.9	0.00872702	-0.00778632	0
15133.9	0.00872702	-0.00779777	0
15163.9	0.00874612	-0.00777868	0
15193.9	0.00865066	-0.00775323	0
15223.9	0.00870793	-0.00776278	0
15253.9	0.00868884	-0.00775705	0
15283.9	0.00861248	-0.00778123	0
15313.9	0.00866975	-0.00773224	0
15343.9	0.00863157	-0.00772587	0
15373.9	0.00868884	-0.00771251	0
15403.9	0.00882248	-0.00767688	0
15433.9	0.00880339	-0.00766734	0
15463.9	0.00861248	-0.00767243	0
15493.9	0.00866975	-0.00769533	0
15523.9	0.00876521	-0.00765716	0
15553.9	0.00870793	-0.00767497	0
15583.9	0.00876521	-0.00769788	0
15613.9	0.00870793	-0.00764062	0
15643.9	0.00870793	-0.00764571	0
15673.9	0.00872702	-0.00763044	0
15703.9	0.00872702	-0.0076228	0
15733.9	0.00863157	-0.0076508	0
15763.9	0.00863157	-0.00761389	0
15793.9	0.00876521	-0.00760053	0
15823.9	0.00870793	-0.00762853	0
15853.9	0.00874612	-0.00756999	0
15883.9	0.00865066	-0.00756427	0
15913.9	0.00866975	-0.00757317	0
15943.9	0.00866975	-0.00756045	0
15973.9	0.00863157	-0.00756045	0
16003.9	0.00865066	-0.00755536	0
16033.9	0.00868884	-0.00754391	0
16063.9	0.00876521	-0.007549	0
16093.9	0.00870793	-0.007514	0
16123.9	0.00868884	-0.00754836	0
16153.9	0.00866975	-0.00749555	0
16183.9	0.00870793	-0.00750064	0
16213.9	0.00859339	-0.00747328	0
16243.9	0.00880339	-0.00751909	0
16273.9	0.00861248	-0.00751909	0
16303.9	0.00870793	-0.00751909	0
16333.9	0.00863157	-0.007521	0
16363.9	0.00872702	-0.00748346	0
16393.9	0.00882248	-0.00746628	0
16423.9	0.00863157	-0.00745865	0
16453.9	0.00872702	-0.0074631	0
16483.9	0.00872702	-0.00741984	0
16513.9	0.00868884	-0.00746946	0
16543.9	0.00868884	-0.00740075	0
16573.9	0.00874612	-0.00738421	0
16603.9	0.00880339	-0.00739184	0
16633.9	0.00876521	-0.00737339	0
16663.9	0.00874612	-0.00737403	0
16693.9	0.00863157	-0.00740266	0
16723.9	0.00876521	-0.00736257	0
16753.9	0.00884157	-0.00735557	0
16783.9	0.00870793	-0.00735621	0
16813.9	0.00866975	-0.00735048	0
16843.9	0.00874612	-0.00734794	0
16873.9	0.00870793	-0.00732058	0
16903.9	0.0087843	-0.00731295	0
16933.9	0.00884157	-0.00728495	0
16963.9	0.00872702	-0.00729704	0
16993.9	0.00868884	-0.00730786	0
17023.9	0.00872702	-0.00725314	0
17053.9	0.00868884	-0.00727223	0
17083.9	0.00870793	-0.00728495	0
17113.9	0.00872702	-0.00721942	0
17143.9	0.00863157	-0.00725759	0
17173.9	0.00866975	-0.00725123	0
17203.9	0.00874612	-0.00720924	0
17233.9	0.00870793	-0.00726077	0
17263.9	0.00870793	-0.0072296	0
17293.9	0.00876521	-0.00722832	0
17323.9	0.00872702	-0.00719842	0
17353.9	0.00872702	-0.00720096	0
17383.9	0.00872702	-0.0072016	0
17413.9	0.0087843	-0.00722896	0
17443.9	0.00859339	-0.00719397	0
17473.9	0.00861248	-0.00713734	0
17503.9	0.00870793	-0.00715706	0
17533.9	0.00865066	-0.00717742	0
17563.9	0.0087843	-0.00716597	0
17593.9	0.00866975	-0.00715897	0
17623.9	0.00861248	-0.00714497	0
17653.9	0.00866975	-0.00711762	0
17683.9	0.00868884	-0.0071437	0
17713.9	0.0087843	-0.00713861	0
17743.9	0.00870793	-0.00715325	0
17773.9	0.00868884	-0.00710044	0
17803.9	0.00866975	-0.00709598	0
17833.9	0.00874612	-0.00711316	0
17863.9	0.00872702	-0.00706226	0
17893.9	0.00874612	-0.00706417	0
17923.9	0.00874612	-0.00709089	0
17953.9	0.00868884	-0.00709726	0
17983.9	0.00868884	-0.00707944	0
18013.9	0.00870793	-0.00705017	0
18043.9	0.00868884	-0.00706035	0
18073.9	0.0087843	-0.00702854	0
18103.9	0.00868884	-0.00705654	0
18133.9	0.00863157	-0.00702981	0
18163.9	0.00872702	-0.0070349	0
18193.9	0.00866975	-0.00705017	0
18223.9	0.00866975	-0.00701518	0
18253.9	0.00872702	-0.0069611	0
18283.9	0.00876521	-0.00701709	0
18313.9	0.0087843	-0.00696428	0
18343.9	0.00872702	-0.00700309	0
18373.9	0.00870793	-0.00700309	0
18403.9	0.00872702	-0.00697064	0
18433.9	0.00872702	-0.00695664	0
18463.9	0.00872702	-0.00699864	0
18493.9	0.00880339	-0.00693437	0
18523.9	0.00868884	-0.00694774	0
18553.9	0.00874612	-0.00693565	0
18583.9	0.00866975	-0.00695601	0
18613.9	0.00863157	-0.00690765	0
18643.9	0.00861248	-0.00693756	0
18673.9	0.0087843	-0.00695792	0
18703.9	0.00863157	-0.00688029	0
18733.9	0.00863157	-0.00690256	0
18763.9	0.00876521	-0.00690447	0
18793.9	0.00863157	-0.00690638	0
18823.9	0.0087843	-0.00687902	0
18853.9	0.00859339	-0.00687329	0
18883.9	0.00884157	-0.00685866	0
18913.9	0.00876521	-0.00682049	0
18943.9	0.00868884	-0.00686757	0
18973.9	0.00876521	-0.00684657	0
19003.9	0.00872702	-0.00685166	0
19033.9	0.00876521	-0.00684148	0
19063.9	0.00874612	-0.00682367	0
19093.9	0.00870793	-0.0068383	0
19123.9	0.00872702	-0.00680649	0
19153.9	0.00876521	-0.0067944	0
19183.9	0.00876521	-0.00677977	0
19213.9	0.00872702	-0.00682303	0
19243.9	0.00882248	-0.00680585	0
19273.9	0.00872702	-0.00681603	0
19303.9	0.00880339	-0.00680649	0
19333.9	0.00866975	-0.00680076	0
19363.9	0.00863157	-0.00678485	0
19393.9	0.00866975	-0.00677913	0
19423.9	0.00870793	-0.00675431	0
19453.9	0.00872702	-0.0067225	0
19483.9	0.00861248	-0.00675113	0
19513.9	0.00872702	-0.00676768	0
19543.9	0.00874612	-0.00672187	0
19573.9	0.00880339	-0.00669578	0
19603.9	0.00866975	-0.00671041	0
19633.9	0.00874612	-0.0067085	0
19663.9	0.00865066	-0.00670532	0
19693.9	0.00870793	-0.00673268	0
19723.9	0.00865066	-0.0066716	0
19753.9	0.00872702	-0.00669323	0
19783.9	0.00868884	-0.00669323	0
19813.9	0.00874612	-0.00671868	0
19843.9	0.00868884	-0.00669323	0
19873.9	0.00876521	-0.00668369	0
19903.9	0.00874612	-0.00665315	0
19933.9	0.00868884	-0.00669387	0
19963.9	0.00866975	-0.00667987	0
19993.9	0.00870793	-0.00665379	0
20023.9	0.0087843	-0.00665442	0
20053.9	0.00876521	-0.00666206	0
20083.9	0.00866975	-0.00666842	0
20113.9	0.00866975	-0.00664106	0
20143.9	0.00870793	-0.00662261	0
20173.9	0.00868884	-0.00664297	0
20203.9	0.00876521	-0.00662388	0
20233.9	0.00865066	-0.00659589	0
20263.9	0.00880339	-0.00655326	0
20293.9	0.00868884	-0.00664679	0
20323.9	0.00863157	-0.00661243	0
20353.9	0.00868884	-0.0065628	0
20383.9	0.00874612	-0.00658125	0
20413.9	0.00872702	-0.00656916	0
20443.9	0.00870793	-0.00659716	0
20473.9	0.00872702	-0.0065978	0
20503.9	0.00874612	-0.00656089	0
20533.9	0.00866975	-0.00656217	0
20563.9	0.00872702	-0.00655135	0
20593.9	0.00863157	-0.00658571	0
20623.9	0.00872702	-0.00649854	0
20653.9	0.00872702	-0.00652654	0
20683.9	0.00865066	-0.00655199	0
20713.9	0.00874612	-0.00652208	0
20743.9	0.00866975	-0.00647945	0
20773.9	0.0087843	-0.00647691	0
20803.9	0.00870793	-0.00649727	0
20833.9	0.00874612	-0.006496	0
20863.9	0.00874612	-0.00646991	0
20893.9	0.00866975	-0.00652463	0
20923.9	0.00865066	-0.00646609	0
20953.9	0.00880339	-0.00648645	0
20983.9	0.00872702	-0.00649154	0
21013.9	0.00868884	-0.00645718	0
21043.9	0.00868884	-0.00648263	0
21073.9	0.00870793	-0.006496	0
21103.9	0.00870793	-0.006468	0
21133.9	0.00870793	-0.00643364	0
21163.9	0.00865066	-0.0064241	0
21193.9	0.00880339	-0.00642983	0
21223.9	0.00868884	-0.00647754	0
21253.9	0.0087843	-0.00643428	0
21283.9	0.00863157	-0.00643301	0
21313.9	0.00865066	-0.00644001	0
21343.9	0.00865066	-0.00642601	0
21373.9	0.00874612	-0.00638147	0
21403.9	0.00868884	-0.0064031	0
21433.9	0.00872702	-0.00643173	0
21463.9	0.00865066	-0.00641646	0
21493.9	0.00866975	-0.00636047	0
21523.9	0.00863157	-0.00635729	0
21553.9	0.00872702	-0.00639229	0
21583.9	0.00866975	-0.00634393	0
21613.9	0.00870793	-0.00634711	0
21643.9	0.00872702	-0.00633502	0
21673.9	0.00874612	-0.00637065	0
21703.9	0.00868884	-0.00636175	0
21733.9	0.00868884	-0.00636684	0
21763.9	0.00866975	-0.00630766	0
21793.9	0.00876521	-0.0063433	0
21823.9	0.00865066	-0.0063293	0
21853.9	0.00874612	-0.00632484	0
21883.9	0.00870793	-0.00632294	0
21913.9	0.00868884	-0.0063363	0
21943.9	0.00870793	-0.0063153	0
21973.9	0.00872702	-0.00633057	0
22003.9	0.00876521	-0.00628221	0
22033.9	0.00872702	-0.00628858	0
22063.9	0.00874612	-0.00630639	0
22093.9	0.00872702	-0.00628094	0
22123.9	0.00874612	-0.00627903	0
22153.9	0.00870793	-0.00632612	0
22183.9	0.00870793	-0.00635093	0
22213.9	0.00866975	-0.00634393	0
22243.9	0.00874612	-0.0063293	0
22273.9	0.00870793	-0.0063452	0
22303.9	0.00866975	-0.00630067	0
22333.9	0.00872702	-0.00628221	0
22363.9	0.0085743	-0.00634584	0
22393.9	0.0087843	-0.00634648	0
22423.9	0.00865066	-0.00631848	0
22453.9	0.00872702	-0.00630003	0
22483.9	0.00865066	-0.00631912	0
22513.9	0.00868884	-0.00631339	0
22543.9	0.00866975	-0.00630003	0
22573.9	0.00872702	-0.00629558	0
22603.9	0.00870793	-0.00630576	0
22633.9	0.00876521	-0.00628667	0
22663.9	0.0085743	-0.00630067	0
22693.9	0.00876521	-0.0062714	0
22723.9	0.00865066	-0.00627331	0
22753.9	0.00868884	-0.00629112	0
22783.9	0.00872702	-0.00625804	0
22813.9	0.00874612	-0.00631466	0
22843.9	0.00872702	-0.00628285	0
22873.9	0.0087843	-0.00625549	0
22903.9	0.00870793	-0.00624531	0
22933.9	0.0085743	-0.00625358	0
22963.9	0.00876521	-0.00626313	0
22993.9	0.00874612	-0.00626758	0
23023.9	0.00876521	-0.00624977	0
23053.9	0.00866975	-0.00621032	0
23083.9	0.00861248	-0.00625358	0
23113.9	0.00868884	-0.00621604	0
23143.9	0.00866975	-0.00623513	0
23173.9	0.00874612	-0.00623704	0
23203.9	0.00872702	-0.00620586	0
23233.9	0.00880339	-0.00619568	0
23263.9	0.00866975	-0.00621477	0
23293.9	0.00870793	-0.00619123	0
23323.9	0.00876521	-0.00619378	0
23353.9	0.00866975	-0.00614606	0
23383.9	0.00866975	-0.0061925	0
23413.9	0.00872702	-0.00616896	0
23443.9	0.00876521	-0.00615815	0
23473.9	0.00870793	-0.00617914	0
23503.9	0.00886066	-0.00615878	0
23533.9	0.00872702	-0.00618041	0
23563.9	0.00866975	-0.00613842	0
23593.9	0.00880339	-0.00616705	0
23623.9	0.0087843	-0.00616133	0
23653.9	0.00865066	-0.00616196	0
23683.9	0.00876521	-0.00612124	0
23713.9	0.00872702	-0.00614351	0
23743.9	0.00863157	-0.00613651	0
23773.9	0.00868884	-0.00615369	0
23803.9	0.0087843	-0.00609452	0
23833.9	0.00870793	-0.00610534	0
23863.9	0.00872702	-0.00613079	0
23893.9	0.00872702	-0.00608625	0
23923.9	0.00859339	-0.00610152	0
23953.9	0.00876521	-0.00610661	0
23983.9	0.00868884	-0.00612252	0
24013.9	0.00872702	-0.00607352	0
24043.9	0.00866975	-0.00609643	0
24073.9	0.00872702	-0.00607861	0
24103.9	0.00870793	-0.00604108	0
24133.9	0.00861248	-0.00608434	0
24163.9	0.00874612	-0.00609961	0
24193.9	0.00865066	-0.00604998	0
24223.9	0.00874612	-0.00605507	0
24253.9	0.00872702	-0.00607543	0
24283.9	0.00868884	-0.00606907	0
24313.9	0.00880339	-0.0060678	0
24343.9	0.00865066	-0.00605507	0
24373.9	0.00868884	-0.0060258	0
24403.9	0.00870793	-0.00605571	0
24433.9	0.00872702	-0.0060748	0
24463.9	0.00866975	-0.00604871	0
24493.9	0.00853611	-0.00605125	0
24523.9	0.00874612	-0.00599399	0
24553.9	0.00868884	-0.00601372	0
24583.9	0.00870793	-0.00601881	0
24613.9	0.00865066	-0.00604807	0
24643.9	0.00870793	-0.00601562	0
24673.9	0.00872702	-0.00594755	0
24703.9	0.00874612	-0.00600099	0
24733.9	0.00868884	-0.00602135	0
24763.9	0.00868884	-0.00602135	0
24793.9	0.00880339	-0.00598254	0
24823.9	0.00872702	-0.00599972	0
24853.9	0.00874612	-0.0060258	0
24883.9	0.00870793	-0.00597363	0
24913.9	0.00876521	-0.00599717	0
24943.9	0.00870793	-0.00596345	0
24973.9	0.00863157	-0.0059819	0
25003.9	0.00872702	-0.005945	0
25033.9	0.00866975	-0.005924	0
25063.9	0.00861248	-0.00591128	0
25093.9	0.00872702	-0.00597681	0
25123.9	0.00872702	-0.00593546	0
25153.9	0.00870793	-0.00592082	0
25183.9	0.00868884	-0.00596918	0
25213.9	0.0087843	-0.00592782	0
25243.9	0.00866975	-0.00592846	0
25273.9	0.00868884	-0.00593673	0
25303.9	0.00866975	-0.005959	0
25333.9	0.00870793	-0.00590492	0
25363.9	0.00874612	-0.00594309	0
25393.9	0.00870793	-0.00588137	0
25423.9	0.00866975	-0.00587247	0
25453.9	0.00872702	-0.0058801	0
25483.9	0.00876521	-0.00588837	0
25513.9	0.00872702	-0.00592909	0
25543.9	0.00876521	-0.0058642	0
25573.9	0.00874612	-0.00584829	0
25603.9	0.00863157	-0.00587501	0
25633.9	0.00872702	-0.00588328	0
25663.9	0.00868884	-0.00586929	0
25693.9	0.00874612	-0.00585274	0
25723.9	0.00865066	-0.00585083	0
25753.9	0.00865066	-0.00585529	0
25783.9	0.00866975	-0.00587501	0
25813.9	0.00868884	-0.00581775	0
25843.9	0.00882248	-0.00582729	0
25873.9	0.00874612	-0.00581902	0
25903.9	0.00870793	-0.00580121	0
25933.9	0.00868884	-0.00582284	0
25963.9	0.00872702	-0.00581202	0
25993.9	0.00863157	-0.00583493	0
26023.9	0.00866975	-0.00580439	0
26053.9	0.00872702	-0.00582538	0
26083.9	0.00872702	-0.00581457	0
26113.9	0.00872702	-0.00580884	0
26143.9	0.00865066	-0.00578403	0
26173.9	0.00874612	-0.00578912	0
26203.9	0.00863157	-0.0058133	0
26233.9	0.00880339	-0.00580121	0
26263.9	0.00870793	-0.00580248	0
26293.9	0.00880339	-0.00579357	0
26323.9	0.00874612	-0.00573058	0
26353.9	0.00872702	-0.00577957	0
26383.9	0.00866975	-0.00578848	0
26413.9	0.00866975	-0.00577576	0
26443.9	0.00870793	-0.00575349	0
26473.9	0.00872702	-0.00577067	0
26503.9	0.00872702	-0.00576876	0
26533.9	0.00872702	-0.00574204	0
26563.9	0.00870793	-0.00573695	0
26593.9	0.00859339	-0.00575603	0
26623.9	0.00863157	-0.00576112	0
26653.9	0.00870793	-0.00573885	0
26683.9	0.00863157	-0.00573822	0
26713.9	0.00865066	-0.00573249	0
26743.9	0.00872702	-0.00574458	0
26773.9	0.00872702	-0.00574204	0
26803.9	0.00865066	-0.00570959	0
26833.9	0.00872702	-0.00575985	0
26863.9	0.00863157	-0.00572613	0
26893.9	0.00874612	-0.00574394	0
26923.9	0.00870793	-0.00572295	0
26953.9	0.00866975	-0.00571913	0
26983.9	0.00866975	-0.00571404	0
27013.9	0.00861248	-0.00567396	0
27043.9	0.00865066	-0.00570959	0
27073.9	0.00874612	-0.0057045	0
27103.9	0.00872702	-0.00568605	0
27133.9	0.00872702	-0.0056466	0
27163.9	0.00876521	-0.00570322	0
27193.9	0.00863157	-0.00568795	0
27223.9	0.00872702	-0.00568605	0
27253.9	0.0087843	-0.00566887	0
27283.9	0.00866975	-0.00568859	0
27313.9	0.00874612	-0.00564342	0
27343.9	0.00876521	-0.00564342	0
27373.9	0.00859339	-0.00566823	0
27403.9	0.00870793	-0.00564978	0
27433.9	0.00866975	-0.00564024	0
27463.9	0.00872702	-0.00564342	0
27493.9	0.00870793	-0.00563578	0
27523.9	0.00876521	-0.00561924	0
27553.9	0.00863157	-0.00559124	0
27583.9	0.00868884	-0.00561669	0
27613.9	0.00866975	-0.00560015	0
27643.9	0.00868884	-0.00560715	0
27673.9	0.00882248	-0.00564914	0
27703.9	0.00870793	-0.00558933	0
27733.9	0.00874612	-0.00563133	0
27763.9	0.00865066	-0.0056027	0
27793.9	0.00870793	-0.00563642	0
27823.9	0.00876521	-0.00559252	0
27853.9	0.00876521	-0.00555243	0
27883.9	0.00865066	-0.00563769	0
27913.9	0.00876521	-0.00556834	0
27943.9	0.00876521	-0.0055887	0
27973.9	0.00863157	-0.00555752	0
28003.9	0.00859339	-0.00560524	0
28033.9	0.00866975	-0.00555689	0
28063.9	0.00865066	-0.00561288	0
28093.9	0.00865066	-0.00558361	0
28123.9	0.00872702	-0.00555434	0
28153.9	0.00872702	-0.00552571	0
28183.9	0.00865066	-0.00558297	0
28213.9	0.0085743	-0.00558106	0
28243.9	0.00863157	-0.0055817	0
28273.9	0.00876521	-0.00555689	0
28303.9	0.00868884	-0.00553207	0
28333.9	0.00872702	-0.00558488	0
28363.9	0.00874612	-0.00556388	0
28393.9	0.00868884	-0.0055537	0
28423.9	0.00870793	-0.00557979	0
28453.9	0.00868884	-0.00555625	0
28483.9	0.00874612	-0.00550217	0
28513.9	0.00870793	-0.00551807	0
28543.9	0.00872702	-0.00551489	0
28573.9	0.00859339	-0.00548372	0
28603.9	0.00874612	-0.00550726	0
28633.9	0.00868884	-0.0055009	0
28663.9	0.00855521	-0.00548244	0
28693.9	0.00872702	-0.00549708	0
28723.9	0.00874612	-0.00548181	0
28753.9	0.00863157	-0.00546908	0
28783.9	0.00876521	-0.00544554	0
28813.9	0.00870793	-0.00546399	0
28843.9	0.00861248	-0.00549072	0
28873.9	0.00866975	-0.00549899	0
28903.9	0.00876521	-0.00550853	0
28933.9	0.00861248	-0.00549072	0
28963.9	0.00876521	-0.00546717	0
28993.9	0.0085743	-0.00549517	0
29023.9	0.00872702	-0.00544809	0
29053.9	0.00866975	-0.00546463	0
29083.9	0.00884157	-0.00546081	0
29113.9	0.00865066	-0.00547163	0
29143.9	0.00866975	-0.00543791	0
29173.9	0.00870793	-0.00544872	0
29203.9	0.00870793	-0.00544554	0
29233.9	0.00874612	-0.00547226	0
29263.9	0.00872702	-0.00542773	0
29293.9	0.00865066	-0.00541818	0
29323.9	0.00872702	-0.00543472	0
29353.9	0.00872702	-0.00545254	0
29383.9	0.00868884	-0.00541627	0
29413.9	0.00859339	-0.00540673	0
29443.9	0.00865066	-0.00543218	0
29473.9	0.00872702	-0.00542136	0
29503.9	0.00868884	-0.005401	0
29533.9	0.00872702	-0.00540928	0
29563.9	0.00874612	-0.00542518	0
29593.9	0.00872702	-0.00540418	0
29623.9	0.00868884	-0.00543727	0
29653.9	0.00866975	-0.00541182	0
29683.9	0.00872702	-0.005422	0
29713.9	0.00865066	-0.00539337	0
29743.9	0.00868884	-0.00541055	0
29773.9	0.00865066	-0.00538192	0
29803.9	0.00870793	-0.00540164	0
29833.9	0.00868884	-0.0053921	0
29863.9	0.00865066	-0.0053641	0
29893.9	0.00865066	-0.00538446	0
29923.9	0.00865066	-0.00537174	0
29953.9	0.00870793	-0.00539591	0
29983.9	0.00872702	-0.00535965	0
30013.9	0.00861248	-0.00535392	0
30043.9	0.00868884	-0.00536855	0
30073.9	0.00880339	-0.00535265	0
30103.9	0.00861248	-0.00529666	0
30133.9	0.00865066	-0.00533865	0
30163.9	0.00876521	-0.00534183	0
30193.9	0.00866975	-0.00529793	0
30223.9	0.00865066	-0.0053202	0
30253.9	0.00866975	-0.00535519	0
30283.9	0.00872702	-0.0053711	0
30313.9	0.00876521	-0.00533165	0
30343.9	0.00868884	-0.00530938	0
30373.9	0.00870793	-0.00529602	0
30403.9	0.00872702	-0.00531956	0
30433.9	0.00874612	-0.00527184	0
30463.9	0.00876521	-0.00531575	0
30493.9	0.00863157	-0.00532847	0
30523.9	0.00870793	-0.00530175	0
30553.9	0.00866975	-0.00528648	0
30583.9	0.00868884	-0.00528202	0
30613.9	0.00863157	-0.00527693	0
30643.9	0.00876521	-0.00528202	0
30673.9	0.00868884	-0.00527566	0
30703.9	0.00870793	-0.0053202	0
30733.9	0.0087843	-0.00526803	0
30763.9	0.00876521	-0.00529666	0
30793.9	0.00866975	-0.00525721	0
30823.9	0.00874612	-0.0053132	0
30853.9	0.00868884	-0.00533929	0
30883.9	0.00874612	-0.00524512	0
30913.9	0.00874612	-0.00529729	0
30943.9	0.00874612	-0.0052553	0
30973.9	0.00872702	-0.00521649	0
31003.9	0.00872702	-0.00524767	0
31033.9	0.00868884	-0.00526357	0
31063.9	0.00866975	-0.00521458	0
31093.9	0.0087843	-0.00524321	0
31123.9	0.00863157	-0.00524321	0
31153.9	0.00865066	-0.00522858	0
31183.9	0.00872702	-0.00527057	0
31213.9	0.00859339	-0.00522094	0
31243.9	0.00872702	-0.00520758	0
31273.9	0.00876521	-0.00520186	0
31303.9	0.00870793	-0.00519549	0
31333.9	0.00876521	-0.00519231	0
31363.9	0.00868884	-0.00519549	0
31393.9	0.00863157	-0.00520949	0
31423.9	0.00872702	-0.00519995	0
31453.9	0.00872702	-0.00517641	0
31483.9	0.00870793	-0.0051815	0
31513.9	0.00874612	-0.00516304	0
31543.9	0.00868884	-0.00517513	0
31573.9	0.00872702	-0.00516241	0
31603.9	0.00874612	-0.00516177	0
31633.9	0.00870793	-0.00513187	0
31663.9	0.00870793	-0.00513378	0
31693.9	0.00876521	-0.00514905	0
31723.9	0.0087843	-0.00516559	0
31753.9	0.00872702	-0.00520504	0
31783.9	0.00863157	-0.00514141	0
31813.9	0.00866975	-0.00515795	0
31843.9	0.00874612	-0.00514523	0
31873.9	0.00874612	-0.00511087	0
31903.9	0.00872702	-0.00512741	0
31933.9	0.00874612	-0.00512232	0
31963.9	0.00865066	-0.00511151	0
31993.9	0.00872702	-0.00512996	0
32023.9	0.00866975	-0.0051325	0
32053.9	0.00872702	-0.00506888	0
32083.9	0.00866975	-0.00510451	0
32113.9	0.00865066	-0.00509497	0
32143.9	0.00868884	-0.00508606	0
32173.9	0.00874612	-0.00509115	0
32203.9	0.00872702	-0.00505043	0
32233.9	0.0087843	-0.0050657	0
32263.9	0.00870793	-0.00509115	0
32293.9	0.00868884	-0.0050727	0
32323.9	0.00866975	-0.00500207	0
32353.9	0.00870793	-0.0050956	0
32383.9	0.00866975	-0.00505106	0
32413.9	0.00866975	-0.00504788	0
32443.9	0.00872702	-0.00504788	0
32473.9	0.00868884	-0.0050377	0
32503.9	0.00868884	-0.0050307	0
32533.9	0.0087843	-0.00505615	0
32563.9	0.00876521	-0.00505615	0
32593.9	0.00868884	-0.00504343	0
32623.9	0.00870793	-0.00501734	0
32653.9	0.00865066	-0.00501989	0
32683.9	0.00868884	-0.0049938	0
32713.9	0.00866975	-0.00501416	0
32743.9	0.0087843	-0.00501989	0
32773.9	0.00868884	-0.00496326	0
32803.9	0.00872702	-0.00497789	0
32833.9	0.00868884	-0.00502434	0
32863.9	0.00882248	-0.00497789	0
32893.9	0.00865066	-0.00499444	0
32923.9	0.00870793	-0.00493208	0
32953.9	0.00870793	-0.00500462	0
32983.9	0.00870793	-0.00496644	0
33013.9	0.0087843	-0.00497471	0
33043.9	0.00872702	-0.00492381	0
33073.9	0.00876521	-0.00496008	0
33103.9	0.00870793	-0.00494099	0
33133.9	0.00880339	-0.0049569	0
33163.9	0.00870793	-0.00496453	0
33193.9	0.00874612	-0.00494926	0
33223.9	0.00870793	-0.00490027	0
33253.9	0.00863157	-0.00490727	0
33283.9	0.00872702	-0.00490663	0
33313.9	0.00874612	-0.00486464	0
33343.9	0.00863157	-0.00490027	0
33373.9	0.00874612	-0.0049289	0
33403.9	0.0087843	-0.00486082	0
33433.9	0.00872702	-0.00488436	0
33463.9	0.00880339	-0.00488818	0
33493.9	0.00870793	-0.00493336	0
33523.9	0.00872702	-0.00489136	0
33553.9	0.00866975	-0.00487355	0
33583.9	0.00866975	-0.00487482	0
33613.9	0.00861248	-0.00489073	0
33643.9	0.00866975	-0.00487864	0
33673.9	0.00870793	-0.00485764	0
33703.9	0.00868884	-0.00488818	0
33733.9	0.00870793	-0.00485383	0
33763.9	0.00868884	-0.00486655	0
33793.9	0.00874612	-0.00489391	0
33823.9	0.00872702	-0.0048621	0
33853.9	0.00872702	-0.00487546	0
33883.9	0.00870793	-0.00483092	0
33913.9	0.00870793	-0.00484428	0
33943.9	0.00876521	-0.00485383	0
33973.9	0.00870793	-0.00480038	0
34003.9	0.00874612	-0.00482074	0
34033.9	0.00874612	-0.00483856	0
34063.9	0.00876521	-0.0048201	0
34093.9	0.00866975	-0.00480674	0
34123.9	0.00859339	-0.00478893	0
34153.9	0.00874612	-0.00483347	0
34183.9	0.0085743	-0.00482456	0
34213.9	0.00868884	-0.00481883	0
34243.9	0.00868884	-0.00475521	0
34273.9	0.00872702	-0.0048201	0
34303.9	0.00868884	-0.00477366	0
34333.9	0.00872702	-0.00477938	0
34363.9	0.00882248	-0.00479338	0
34393.9	0.00872702	-0.00479084	0
34423.9	0.00868884	-0.00473994	0
34453.9	0.00870793	-0.00478002	0
34483.9	0.00876521	-0.00473612	0
34513.9	0.00870793	-0.0047762	0
34543.9	0.00872702	-0.00475584	0
34573.9	0.00872702	-0.00478193	0
34603.9	0.00870793	-0.00473548	0
34633.9	0.00872702	-0.00475266	0
34663.9	0.00870793	-0.0047393	0
34693.9	0.00861248	-0.00475966	0
34723.9	0.00870793	-0.00473612	0
34753.9	0.00865066	-0.00474248	0
34783.9	0.00872702	-0.00474439	0
34813.9	0.00861248	-0.00473866	0
34843.9	0.00872702	-0.00473803	0
34873.9	0.00866975	-0.00472148	0
34903.9	0.00868884	-0.00468967	0
34933.9	0.00872702	-0.00471703	0
34963.9	0.00872702	-0.00470685	0
34993.9	0.00872702	-0.00468713	0
35023.9	0.00874612	-0.00467949	0
35053.9	0.00861248	-0.00469794	0
35083.9	0.00872702	-0.0047024	0
35113.9	0.00865066	-0.00473675	0
35143.9	0.00874612	-0.0046744	0
35173.9	0.00868884	-0.00470685	0
35203.9	0.00866975	-0.00465022	0
35233.9	0.00870793	-0.0047094	0
35263.9	0.00870793	-0.00468776	0
35293.9	0.00872702	-0.00464259	0
35323.9	0.00870793	-0.00466104	0
35353.9	0.00872702	-0.00467058	0
35383.9	0.00872702	-0.00462287	0
35413.9	0.00865066	-0.00461523	0
35443.9	0.00865066	-0.00467631	0
35473.9	0.00876521	-0.00461905	0
35503.9	0.00868884	-0.00467886	0
35533.9	0.00865066	-0.00462477	0
35563.9	0.00868884	-0.00466804	0
35593.9	0.0087843	-0.00465213	0
35623.9	0.00868884	-0.00463177	0
35653.9	0.00876521	-0.00462923	0
35683.9	0.00880339	-0.00461141	0
35713.9	0.00870793	-0.00462159	0
35743.9	0.00868884	-0.00460251	0
35773.9	0.00868884	-0.00458596	0
35803.9	0.00882248	-0.0045796	0
35833.9	0.00880339	-0.00465531	0
35863.9	0.00866975	-0.0046006	0
35893.9	0.00874612	-0.00460823	0
35923.9	0.00861248	-0.00460887	0
35953.9	0.00859339	-0.00461014	0
35983.9	0.00863157	-0.00459296	0
36013.9	0.00870793	-0.00459996	0
36043.9	0.00880339	-0.00454779	0
36073.9	0.00882248	-0.00460123	0
36103.9	0.00868884	-0.00457324	0
36133.9	0.00868884	-0.00457196	0
36163.9	0.00866975	-0.00457896	0
36193.9	0.00866975	-0.00458278	0
36223.9	0.00868884	-0.00457069	0
36253.9	0.00870793	-0.00454524	0
36283.9	0.00868884	-0.00453888	0
36313.9	0.00868884	-0.00457451	0
36343.9	0.00872702	-0.00453315	0
36373.9	0.00865066	-0.00456942	0
36403.9	0.00865066	-0.00456815	0
36433.9	0.00863157	-0.00452997	0
36463.9	0.00868884	-0.00452615	0
36493.9	0.00870793	-0.00451788	0
36523.9	0.00872702	-0.00453061	0
36553.9	0.00876521	-0.0045427	0
36583.9	0.00872702	-0.00448798	0
36613.9	0.00876521	-0.00456709	0
36643.9	0.00863157	-0.00455818	0
36673.9	0.00861248	-0.00456524	0
36703.9	0.00868884	-0.00455659	0
36733.9	0.00866975	-0.00463436	0
36763.9	0.00874612	-0.004552	0
36793.9	0.00865066	-0.00456562	0
36823.9	0.00870793	-0.00454678	0
36853.9	0.00863157	-0.00456174	0
36883.9	0.00863157	-0.00455105	0
36913.9	0.00870793	-0.00455009	0
36943.9	0.0087843	-0.00454462	0
36973.9	0.00874612	-0.0045303	0
37003.9	0.00868884	-0.00453469	0
37033.9	0.00872702	-0.00453737	0
37063.9	0.00865066	-0.00451108	0
37093.9	0.00872702	-0.00452158	0
37123.9	0.00870793	-0.00452279	0
37153.9	0.00874612	-0.00451846	0
37183.9	0.00876521	-0.00451102	0
37213.9	0.0087843	-0.00450949	0
37243.9	0.00876521	-0.00450236	0
37273.9	0.00880339	-0.00449924	0
37303.9	0.00874612	-0.00450701	0
37333.9	0.00865066	-0.00452235	0
37363.9	0.00874612	-0.00449791	0
37393.9	0.00872702	-0.0045058	0
37423.9	0.00866975	-0.00449275	0
37453.9	0.00870793	-0.00449441	0
37483.9	0.0085743	-0.00448015	0
37513.9	0.00872702	-0.00447035	0
37543.9	0.00872702	-0.00448066	0
37573.9	0.00876521	-0.00448492	0
37603.9	0.00872702	-0.00447926	0
37633.9	0.0087843	-0.00447073	0
37663.9	0.00866975	-0.00445616	0
37693.9	0.00872702	-0.00448537	0
37723.9	0.00870793	-0.00447455	0
37753.9	0.00880339	-0.00447315	0
37783.9	0.00872702	-0.00446029	0
37813.9	0.00863157	-0.0044708	0
37843.9	0.00863157	-0.00446558	0
37873.9	0.00865066	-0.00446411	0
37903.9	0.00870793	-0.00445329	0
37933.9	0.00861248	-0.00445622	0
37963.9	0.00868884	-0.00444827	0
37993.9	0.00872702	-0.00443891	0
38023.9	0.00874612	-0.00443624	0
38053.9	0.0087843	-0.00443509	0
38083.9	0.00874612	-0.00443153	0
38113.9	0.00872702	-0.00443096	0
38143.9	0.00870793	-0.00443153	0
38173.9	0.00866975	-0.00444184	0
38203.9	0.0087843	-0.00442472	0
38233.9	0.00874612	-0.00441574	0
38263.9	0.00868884	-0.00441925	0
38293.9	0.00870793	-0.00439971	0
38323.9	0.00863157	-0.00441123	0
38353.9	0.00866975	-0.00439551	0
38383.9	0.00870793	-0.00439773	0
38413.9	0.00868884	-0.00440219	0
38443.9	0.00868884	-0.00439366	0
38473.9	0.00868884	-0.00440009	0
38503.9	0.00876521	-0.00439659	0
38533.9	0.00882248	-0.00439684	0
38563.9	0.00872702	-0.00438762	0
38593.9	0.00870793	-0.00438462	0
38623.9	0.00866975	-0.00438832	0
38653.9	0.00874612	-0.00438526	0
38683.9	0.00872702	-0.00437145	0
38713.9	0.00863157	-0.00436318	0
38743.9	0.00866975	-0.00435675	0
38773.9	0.00876521	-0.00436846	0
38803.9	0.00863157	-0.00436865	0
38833.9	0.0087843	-0.00435242	0
38863.9	0.00866975	-0.00434109	0
38893.9	0.00874612	-0.00435522	0
38923.9	0.00870793	-0.00435121	0
38953.9	0.0087843	-0.00435178	0
38983.9	0.00870793	-0.00434434	0
39013.9	0.00866975	-0.00434116	0
39043.9	0.00874612	-0.00432225	0
39073.9	0.00876521	-0.00433129	0
39103.9	0.00861248	-0.00432798	0
39133.9	0.00865066	-0.00432353	0
39163.9	0.00865066	-0.00431532	0
39193.9	0.0087843	-0.00431646	0
39223.9	0.00876521	-0.0043262	0
39253.9	0.00868884	-0.00431748	0
39283.9	0.00872702	-0.00431818	0
39313.9	0.00874612	-0.00430291	0
39343.9	0.00872702	-0.0043017	0
39373.9	0.00866975	-0.00430984	0
39403.9	0.00865066	-0.00429705	0
39433.9	0.00870793	-0.00430087	0
39463.9	0.00865066	-0.00430507	0
39493.9	0.00887975	-0.00429476	0
39523.9	0.00880339	-0.00430405	0
39553.9	0.00868884	-0.00427891	0
39583.9	0.00870793	-0.00428999	0
39613.9	0.00865066	-0.00429279	0
39643.9	0.00874612	-0.00428356	0
39673.9	0.00872702	-0.00426771	0
39703.9	0.00868884	-0.0042849	0
39733.9	0.00868884	-0.0042751	0
39763.9	0.00865066	-0.0042786	0
39793.9	0.00868884	-0.00427128	0
39823.9	0.00863157	-0.00426886	0
39853.9	0.00874612	-0.00428935	0
39883.9	0.00876521	-0.00425848	0
39913.9	0.00884157	-0.00426657	0
39943.9	0.00868884	-0.00425817	0
39973.9	0.0087843	-0.00426237	0
40003.9	0.00870793	-0.00424353	0
40033.9	0.00868884	-0.00426262	0
40063.9	0.00868884	-0.00425899	0
40093.9	0.0087843	-0.00424467	0
40123.9	0.00874612	-0.00424455	0
40153.9	0.00872702	-0.00423793	0
40183.9	0.00870793	-0.00424366	0
40213.9	0.00870793	-0.00422227	0
40243.9	0.00874612	-0.00423627	0
40273.9	0.00874612	-0.00422615	0
40303.9	0.00870793	-0.00423112	0
40333.9	0.00870793	-0.00422635	0
40363.9	0.00876521	-0.00421565	0
40393.9	0.00872702	-0.00421457	0
40423.9	0.0087843	-0.00422355	0
40453.9	0.00870793	-0.00421756	0
40483.9	0.00874612	-0.00420725	0
40513.9	0.00872702	-0.00421413	0
40543.9	0.00865066	-0.00421393	0
40573.9	0.00870793	-0.00420668	0
40603.9	0.0087843	-0.00420598	0
40633.9	0.00868884	-0.00419904	0
40663.9	0.00870793	-0.00420528	0
40693.9	0.0087843	-0.00419841	0
40723.9	0.00876521	-0.00418969	0
40753.9	0.00872702	-0.00419472	0
40783.9	0.00872702	-0.00418924	0
40813.9	0.00872702	-0.00419249	0
40843.9	0.0087843	-0.00418008	0
40873.9	0.00870793	-0.00417702	0
40903.9	0.00872702	-0.00417486	0
40933.9	0.00872702	-0.00416499	0
40963.9	0.00872702	-0.0041774	0
40993.9	0.00874612	-0.00417244	0
41023.9	0.00865066	-0.00415965	0
41053.9	0.0087843	-0.00416582	0
41083.9	0.0087843	-0.00416989	0
41113.9	0.00880339	-0.00415201	0
41143.9	0.00872702	-0.00414386	0
41173.9	0.00874612	-0.00414106	0
41203.9	0.00872702	-0.00414552	0
41233.9	0.00868884	-0.00414208	0
41263.9	0.00872702	-0.00414336	0
41293.9	0.00866975	-0.00412725	0
41323.9	0.00866975	-0.00413858	0
41353.9	0.00863157	-0.00414768	0
41383.9	0.00865066	-0.00412891	0
41413.9	0.00880339	-0.00412382	0
41443.9	0.00876521	-0.00411815	0
41473.9	0.00876521	-0.00412433	0
41503.9	0.00880339	-0.00411007	0
41533.9	0.00866975	-0.00410371	0
41563.9	0.00872702	-0.00410695	0
41593.9	0.00868884	-0.00411389	0
41623.9	0.00868884	-0.00415277	0
41653.9	0.00882248	-0.00411332	0
41683.9	0.00868884	-0.00408716	0
41713.9	0.00870793	-0.00408748	0
41743.9	0.00872702	-0.00409594	0
41773.9	0.00865066	-0.00407679	0
41803.9	0.00872702	-0.00409989	0
41833.9	0.00870793	-0.00408455	0
41863.9	0.00870793	-0.00408958	0
41893.9	0.00870793	-0.00407723	0
41923.9	0.00865066	-0.00408289	0
41953.9	0.00865066	-0.00407316	0
41983.9	0.00868884	-0.00406342	0
42013.9	0.00872702	-0.00407112	0
42043.9	0.00870793	-0.00406221	0
42073.9	0.00865066	-0.0040659	0
42103.9	0.00866975	-0.00405617	0
42133.9	0.00868884	-0.00404974	0
42163.9	0.00863157	-0.00405483	0
42193.9	0.00870793	-0.00404337	0
42223.9	0.00870793	-0.00404312	0
42253.9	0.00868884	-0.00404751	0
42283.9	0.00866975	-0.00404541	0
42313.9	0.00872702	-0.00403898	0
42343.9	0.00866975	-0.00402746	0
42373.9	0.00880339	-0.00402676	0
42403.9	0.0087843	-0.00402078	0
42433.9	0.00866975	-0.00401639	0
42463.9	0.0087843	-0.00400455	0
42493.9	0.00880339	-0.0040316	0
42523.9	0.00876521	-0.00400882	0
42553.9	0.00876521	-0.00401798	0
42583.9	0.00874612	-0.00401314	0
42613.9	0.00868884	-0.00401111	0
42643.9	0.00870793	-0.00399704	0
42673.9	0.00870793	-0.00399882	0
42703.9	0.0087843	-0.00399583	0
42733.9	0.00872702	-0.00398972	0
42763.9	0.00870793	-0.00398902	0
42793.9	0.00868884	-0.0039994	0
42823.9	0.00884157	-0.00398425	0
42853.9	0.00870793	-0.00398189	0
42883.9	0.00865066	-0.00398508	0
42913.9	0.00870793	-0.00397865	0
42943.9	0.00872702	-0.0039754	0
42973.9	0.00874612	-0.00398056	0
43003.9	0.00868884	-0.00398317	0
43033.9	0.00876521	-0.00396127	0
43063.9	0.00874612	-0.00396458	0
43093.9	0.0087843	-0.00395249	0
43123.9	0.00876521	-0.00395956	0
43153.9	0.00868884	-0.00395415	0
43183.9	0.00866975	-0.0039537	0
43213.9	0.00882248	-0.00393989	0
43222.3	0.00870793	-0.00393334	0