File: EXPERIMENTAL/Data/Battery-cycling/JP-measurements/T-cell/2024-04-26_JP-A2-04_T-cell_Li-Cu_1-mm-PP-spacer_75muL-4MLiFSI-DME_inside-glovebox_added-OCV-0.1s_02_MB_C10.txt
time/s	Ewe/V	I/mA	error
60.053	2.966	-0.0250155	0
60.148	0.00866975	-10.3438	0
60.1544	0.00859339	-10.127	0
60.1608	0.0085743	-9.90893	0
60.167	0.00874612	-9.68845	0
60.1728	0.00868884	-9.47815	0
60.1784	0.00863157	-9.27048	0
60.184	0.00861248	-9.06063	0
60.1896	0.00866975	-8.85161	0
60.1952	0.00882248	-8.64597	0
60.2014	0.00870793	-8.42529	0
60.2078	0.00855521	-8.20404	0
60.2142	0.00861248	-7.99165	0
60.2206	0.00868884	-7.78754	0
60.2278	0.00861248	-7.57036	0
60.235	0.0085743	-7.3623	0
60.2426	0.00872702	-7.15392	0
60.2506	0.00868884	-6.94305	0
60.2588	0.00861248	-6.73722	0
60.2676	0.00859339	-6.524	0
60.2764	0.00865066	-6.31932	0
60.286	0.00865066	-6.1059	0
60.2958	0.00861248	-5.89599	0
60.3062	0.00859339	-5.68455	0
60.317	0.00859339	-5.47694	0
60.3284	0.00863157	-5.27194	0
60.3408	0.00861248	-5.0647	0
60.3544	0.00865066	-4.85868	0
60.3694	0.00872702	-4.65202	0
60.386	0.00865066	-4.44842	0
60.4048	0.00853611	-4.24469	0
60.4262	0.00861248	-4.04141	0
60.4508	0.00863157	-3.83934	0
60.4794	0.00865066	-3.63771	0
60.5128	0.0085743	-3.43603	0
60.5518	0.00870793	-3.23402	0
60.5976	0.00865066	-3.03233	0
60.6518	0.00870793	-2.82937	0
60.7154	0.00882248	-2.62806	0
60.7912	0.00874612	-2.42669	0
60.8828	0.00865066	-2.22615	0
60.9964	0.00865066	-2.02452	0
61.1412	0.00859339	-1.82309	0
61.3312	0.00859339	-1.62184	0
61.5908	0.00859339	-1.42028	0
61.9656	0.00865066	-1.21866	0
62.5422	0.00861248	-1.01812	0
63.5182	0.00861248	-0.817446	0
65.0528	0.00863157	-0.648894	0
67.7888	0.00853611	-0.498695	0
81.0594	0.00874612	-0.298583	0
121.059	0.0085743	-0.186042	0
161.059	0.00859339	-0.150102	0
201.059	0.00868884	-0.130484	0
241.059	0.00853611	-0.117376	0
281.059	0.00866975	-0.108066	0
321.059	0.00863157	-0.100755	0
361.059	0.00866975	-0.0943787	0
401.059	0.00868884	-0.0891163	0
441.059	0.00865066	-0.0844647	0
481.059	0.00868884	-0.0806786	0
521.059	0.00865066	-0.077236	0
561.059	0.00863157	-0.0741562	0
601.059	0.00870793	-0.0713118	0
641.059	0.00865066	-0.0688556	0
681.059	0.00870793	-0.0665839	0
721.059	0.00859339	-0.064414	0
761.059	0.00868884	-0.0624223	0
801.059	0.00863157	-0.0607487	0
841.059	0.00866975	-0.0591452	0
881.059	0.00863157	-0.0576626	0
921.059	0.00870793	-0.0561481	0
961.059	0.00855521	-0.0549582	0
1001.06	0.00863157	-0.053571	0
1041.06	0.00865066	-0.0523556	0
1081.06	0.00865066	-0.0512547	0
1121.06	0.00868884	-0.050103	0
1161.06	0.00866975	-0.0491803	0
1201.06	0.00861248	-0.0482576	0
1241.06	0.00863157	-0.0473159	0
1281.06	0.00859339	-0.0465268	0
1321.06	0.00863157	-0.045585	0
1361.06	0.00874612	-0.0452655	0
1401.06	0.00872702	-0.0444027	0
1441.06	0.00880339	-0.0437798	0
1481.06	0.00868884	-0.0429578	0
1521.06	0.0085743	-0.0423642	0
1561.06	0.00861248	-0.0417101	0
1601.06	0.00865066	-0.0410019	0
1641.06	0.00868884	-0.040393	0
1681.06	0.00866975	-0.0399235	0
1721.06	0.00868884	-0.0393744	0
1761.06	0.0087843	-0.0387566	0
1801.06	0.00866975	-0.038266	0
1841.06	0.00861248	-0.0377774	0
1881.06	0.00870793	-0.0373486	0
1921.06	0.00861248	-0.036844	0
1961.06	0.00865066	-0.0363248	0
2001.06	0.00876521	-0.0359297	0
2041.06	0.00863157	-0.03559	0
2081.06	0.00863157	-0.0350778	0
2121.06	0.00872702	-0.0347329	0
2161.06	0.00866975	-0.0343601	0
2201.06	0.00870793	-0.0339872	0
2241.06	0.00866975	-0.0335425	0
2281.06	0.00866975	-0.033379	0
2321.06	0.00868884	-0.0329514	0
2361.06	0.00876521	-0.0325799	0
2401.06	0.00865066	-0.0323559	0
2441.06	0.00874612	-0.0319041	0
2481.06	0.00863157	-0.0316675	0
2521.06	0.00870793	-0.0313506	0
2561.06	0.00870793	-0.0311101	0
2601.06	0.00865066	-0.0308079	0
2641.06	0.00868884	-0.0305419	0
2681.06	0.00865066	-0.0302321	0
2721.06	0.0087843	-0.0299566	0
2761.06	0.00866975	-0.0298573	0
2801.06	0.00863157	-0.0295723	0
2841.06	0.00870793	-0.0292942	0
2881.06	0.00865066	-0.0291085	0
2921.06	0.00859339	-0.0288298	0
2961.06	0.00868884	-0.0286713	0
3001.06	0.00874612	-0.0284226	0
3041.06	0.00868884	-0.0282222	0
3081.06	0.00868884	-0.0281	0
3121.06	0.00868884	-0.0279002	0
3161.06	0.00868884	-0.0275884	0
3201.06	0.00866975	-0.0274141	0
3241.06	0.00861248	-0.0272258	0
3281.06	0.00870793	-0.0270788	0
3321.06	0.00868884	-0.0269019	0
3361.06	0.00866975	-0.0267696	0
3401.06	0.00870793	-0.026594	0
3441.06	0.00870793	-0.0263846	0
3481.06	0.00863157	-0.0262218	0
3521.06	0.00868884	-0.0261041	0
3561.06	0.00865066	-0.025938	0
3601.06	0.00865066	-0.025749	0
3641.06	0.00870793	-0.025576	0
3681.06	0.00865066	-0.0255295	0
3721.06	0.00865066	-0.0253316	0
3761.06	0.00865066	-0.0252286	0
3801.06	0.00865066	-0.0250918	0
3841.06	0.00870793	-0.0248926	0
3881.06	0.00868884	-0.0247787	0
3921.06	0.0087843	-0.024731	0
3961.06	0.00870793	-0.0245923	0
4001.06	0.00866975	-0.0244072	0
4041.06	0.00868884	-0.0242837	0
4081.06	0.00863157	-0.0241501	0
4121.06	0.00868884	-0.0240687	0
4161.06	0.00865066	-0.0239103	0
4201.06	0.00868884	-0.0237607	0
4241.06	0.00876521	-0.0236233	0
4281.06	0.00865066	-0.0236061	0
4321.06	0.00868884	-0.0234566	0
4361.06	0.00872702	-0.0233618	0
4401.06	0.00861248	-0.0233026	0
4441.06	0.00872702	-0.0231328	0
4481.06	0.00863157	-0.0231226	0
4521.06	0.00863157	-0.0228534	0
4561.06	0.00861248	-0.0228674	0
4601.06	0.00868884	-0.0227141	0
4641.06	0.00870793	-0.0226339	0
4681.06	0.00874612	-0.0225449	0
4721.06	0.00870793	-0.0224335	0
4761.06	0.00870793	-0.0222834	0
4801.06	0.00866975	-0.0221758	0
4841.06	0.00870793	-0.0220753	0
4881.06	0.00861248	-0.0220492	0
4921.06	0.00874612	-0.0219334	0
4961.06	0.00866975	-0.0218972	0
5001.06	0.00868884	-0.0217864	0
5041.06	0.00865066	-0.0216948	0
5081.06	0.00865066	-0.0216197	0
5121.06	0.00861248	-0.0215835	0
5161.06	0.00863157	-0.02153	0
5201.06	0.00872702	-0.0213042	0
5241.06	0.00853611	-0.0213296	0
5281.06	0.00872702	-0.0211674	0
5321.06	0.00861248	-0.0211273	0
5361.06	0.00863157	-0.0210573	0
5401.06	0.00853611	-0.0210019	0
5441.06	0.00866975	-0.020862	0
5481.06	0.00870793	-0.0207812	0
5521.06	0.00863157	-0.0207468	0
5561.06	0.00861248	-0.0206934	0
5601.06	0.00859339	-0.0205305	0
5641.06	0.00872702	-0.0204509	0
5681.06	0.00872702	-0.020416	0
5721.06	0.00865066	-0.0203313	0
5761.06	0.00874612	-0.0203237	0
5801.06	0.0085743	-0.0201856	0
5841.06	0.00872702	-0.0201818	0
5881.06	0.00863157	-0.0201195	0
5921.06	0.00870793	-0.0200552	0
5961.06	0.00865066	-0.019982	0
6001.06	0.00866975	-0.0199655	0
6041.06	0.00872702	-0.0198217	0
6081.06	0.00872702	-0.0197593	0
6121.06	0.00868884	-0.0196442	0
6161.06	0.00863157	-0.0195118	0
6201.06	0.00866975	-0.0195195	0
6241.06	0.00874612	-0.0194024	0
6281.06	0.00872702	-0.0194298	0
6321.06	0.00870793	-0.0192707	0
6361.06	0.00872702	-0.0193375	0
6401.06	0.00874612	-0.019286	0
6441.06	0.00872702	-0.0191714	0
6481.06	0.00859339	-0.0190232	0
6521.06	0.00868884	-0.018985	0
6561.06	0.00872702	-0.0188845	0
6601.06	0.00868884	-0.0188788	0
6641.06	0.00868884	-0.0188635	0
6681.06	0.00861248	-0.0187929	0
6721.06	0.00876521	-0.0187369	0
6761.06	0.00866975	-0.0187541	0
6801.06	0.00861248	-0.0185765	0
6841.06	0.00872702	-0.0185778	0
6881.06	0.00866975	-0.0184767	0
6921.06	0.00872702	-0.0184913	0
6961.06	0.00861248	-0.018317	0
7001.06	0.00868884	-0.0183017	0
7041.06	0.00874612	-0.0182947	0
7081.06	0.00866975	-0.0182266	0
7121.06	0.00861248	-0.0182699	0
7161.06	0.00874612	-0.0182012	0
7201.06	0.00872702	-0.0181051	0
7241.06	0.00866975	-0.0180294	0
7281.06	0.00855521	-0.0179988	0
7321.06	0.00874612	-0.0179664	0
7361.06	0.00863157	-0.0179517	0
7401.06	0.00865066	-0.0177481	0
7441.06	0.00866975	-0.0177952	0
7481.06	0.00876521	-0.0176947	0
7521.06	0.00865066	-0.0177501	0
7561.06	0.00868884	-0.0175986	0
7601.06	0.00872702	-0.0176285	0
7641.06	0.00868884	-0.017549	0
7681.06	0.00870793	-0.0175127	0
7721.06	0.00865066	-0.0174714	0
7761.06	0.00859339	-0.0173556	0
7801.06	0.00863157	-0.0174147	0
7841.06	0.00866975	-0.0173231	0
7881.06	0.00866975	-0.0174103	0
7921.06	0.00874612	-0.017283	0
7961.06	0.00863157	-0.0172086	0
8001.06	0.00872702	-0.017243	0
8041.06	0.00859339	-0.0171093	0
8081.06	0.00863157	-0.0170101	0
8121.06	0.00861248	-0.0171456	0
8161.06	0.00865066	-0.0170037	0
8201.06	0.00863157	-0.0168784	0
8241.06	0.00859339	-0.0168447	0
8281.06	0.00874612	-0.0167295	0
8321.06	0.00865066	-0.0168167	0
8361.06	0.00859339	-0.0168179	0
8401.06	0.00866975	-0.0166048	0
8441.06	0.00872702	-0.0167117	0
8481.06	0.00859339	-0.0166831	0
8521.06	0.00876521	-0.0165259	0
8561.06	0.00870793	-0.0165603	0
8601.06	0.00874612	-0.0165889	0
8641.06	0.00863157	-0.0164184	0
8681.06	0.00872702	-0.0162873	0
8721.06	0.00884157	-0.0164508	0
8761.06	0.00861248	-0.016258	0
8801.06	0.00874612	-0.0163007	0
8841.06	0.00866975	-0.0162778	0
8881.06	0.00861248	-0.0164114	0
8921.06	0.00863157	-0.01623	0
8961.06	0.00863157	-0.0162001	0
9001.06	0.00870793	-0.0160156	0
9041.06	0.00866975	-0.0161486	0
9081.06	0.00868884	-0.0161925	0
9121.06	0.00868884	-0.0162529	0
9161.06	0.00861248	-0.0160455	0
9201.06	0.00863157	-0.0158776	0
9241.06	0.00874612	-0.0157891	0
9281.06	0.00870793	-0.0159647	0
9321.06	0.00866975	-0.0158903	0
9361.06	0.00876521	-0.0158228	0
9401.06	0.00855521	-0.0156714	0
9441.06	0.00861248	-0.0158356	0
9481.06	0.00861248	-0.0157758	0
9521.06	0.00865066	-0.01577	0
9561.06	0.00872702	-0.0157732	0
9601.06	0.00865066	-0.0157249	0
9641.06	0.00868884	-0.0156988	0
9681.06	0.00865066	-0.0155594	0
9721.06	0.00866975	-0.0155327	0
9761.06	0.00868884	-0.0155709	0
9801.06	0.00866975	-0.0155881	0
9841.06	0.00866975	-0.0154525	0
9881.06	0.00861248	-0.0156186	0
9921.06	0.00870793	-0.0154258	0
9961.06	0.00876521	-0.0154735	0
10001.1	0.00876521	-0.0153743	0
10041.1	0.00870793	-0.0154704	0
10081.1	0.00865066	-0.0152534	0
10121.1	0.00872702	-0.015205	0
10161.1	0.00870793	-0.0151331	0
10201.1	0.00866975	-0.0151643	0
10241.1	0.00872702	-0.015184	0
10281.1	0.00866975	-0.015226	0
10321.1	0.00861248	-0.0150848	0
10361.1	0.00859339	-0.0150848	0
10401.1	0.00866975	-0.0149932	0
10441.1	0.00874612	-0.0148411	0
10481.1	0.00861248	-0.0149913	0
10521.1	0.00866975	-0.0148882	0
10561.1	0.0085743	-0.0148748	0
10601.1	0.00872702	-0.0148977	0
10641.1	0.00876521	-0.0148354	0
10681.1	0.00859339	-0.0147864	0
10721.1	0.00866975	-0.0147647	0
10761.1	0.00859339	-0.0147272	0
10801.1	0.00865066	-0.0147018	0
10841.1	0.00868884	-0.0147037	0
10881.1	0.00872702	-0.014607	0
10921.1	0.00872702	-0.0146738	0
10961.1	0.00863157	-0.0146089	0
11001.1	0.00866975	-0.0145472	0
11041.1	0.00876521	-0.01446	0
11081.1	0.00859339	-0.0144581	0
11121.1	0.00865066	-0.0144848	0
11161.1	0.00868884	-0.0144956	0
11201.1	0.00866975	-0.0144403	0
11241.1	0.00863157	-0.0144428	0
11281.1	0.00863157	-0.0143283	0
11321.1	0.00870793	-0.0143493	0
11361.1	0.00859339	-0.0142303	0
11401.1	0.00874612	-0.0142437	0
11441.1	0.00863157	-0.0142373	0
11481.1	0.0085743	-0.0141718	0
11521.1	0.00868884	-0.0142634	0
11561.1	0.00859339	-0.0141361	0
11601.1	0.00859339	-0.0141463	0
11641.1	0.00870793	-0.0141533	0
11681.1	0.00870793	-0.0140782	0
11721.1	0.00861248	-0.0141463	0
11761.1	0.00866975	-0.0140642	0
11801.1	0.00861248	-0.0140044	0
11841.1	0.00861248	-0.0139904	0
11881.1	0.00866975	-0.0139141	0
11921.1	0.00866975	-0.0139892	0
11961.1	0.00863157	-0.0139427	0
12001.1	0.00870793	-0.0139618	0
12041.1	0.0085743	-0.0138307	0
12081.1	0.00855521	-0.0138072	0
12121.1	0.00865066	-0.013811	0
12161.1	0.00866975	-0.0137671	0
12201.1	0.00866975	-0.0137671	0
12241.1	0.00865066	-0.0136742	0
12281.1	0.00863157	-0.0136939	0
12321.1	0.00870793	-0.0136927	0
12361.1	0.00866975	-0.0136475	0
12401.1	0.00868884	-0.0136475	0
12441.1	0.00859339	-0.0136055	0
12481.1	0.00851702	-0.0136189	0
12521.1	0.00866975	-0.0136023	0
12561.1	0.00865066	-0.0135711	0
12601.1	0.00865066	-0.0135711	0
12641.1	0.00866975	-0.0134935	0
12681.1	0.00866975	-0.0134922	0
12721.1	0.00872702	-0.0134165	0
12761.1	0.00865066	-0.0134038	0
12801.1	0.00874612	-0.0134083	0
12841.1	0.00872702	-0.0134095	0
12881.1	0.00866975	-0.0133071	0
12921.1	0.00870793	-0.0132995	0
12961.1	0.00866975	-0.0132835	0
13001.1	0.00886066	-0.0133077	0
13041.1	0.00874612	-0.0131881	0
13081.1	0.00863157	-0.0132969	0
13121.1	0.00865066	-0.0132002	0
13161.1	0.00870793	-0.0131913	0
13201.1	0.00876521	-0.0131417	0
13241.1	0.00861248	-0.0131264	0
13281.1	0.0087843	-0.0131639	0
13321.1	0.00863157	-0.0131073	0
13361.1	0.00863157	-0.0129947	0
13401.1	0.00865066	-0.013036	0
13441.1	0.00874612	-0.0130507	0
13481.1	0.00880339	-0.0129311	0
13521.1	0.00859339	-0.0130068	0
13561.1	0.00872702	-0.0129686	0
13601.1	0.00865066	-0.0129762	0
13641.1	0.00868884	-0.0128853	0
13681.1	0.00868884	-0.0128744	0
13721.1	0.00865066	-0.0128725	0
13761.1	0.00872702	-0.0127866	0
13801.1	0.00859339	-0.0128146	0
13841.1	0.00868884	-0.0127516	0
13881.1	0.00861248	-0.0127294	0
13921.1	0.00870793	-0.0126848	0
13961.1	0.00868884	-0.01266	0
14001.1	0.00866975	-0.0126206	0
14041.1	0.00872702	-0.012562	0
14081.1	0.00865066	-0.0126098	0
14121.1	0.00880339	-0.0126066	0
14161.1	0.00859339	-0.012541	0
14201.1	0.00855521	-0.0124774	0
14241.1	0.00865066	-0.0124596	0
14281.1	0.00874612	-0.0124952	0
14321.1	0.00870793	-0.0123845	0
14361.1	0.00865066	-0.0123896	0
14401.1	0.00872702	-0.0124443	0
14441.1	0.00865066	-0.0123724	0
14481.1	0.00859339	-0.0124373	0
14521.1	0.00872702	-0.0124163	0
14561.1	0.00870793	-0.0123553	0
14601.1	0.00870793	-0.0122598	0
14641.1	0.00863157	-0.0123693	0
14681.1	0.00866975	-0.0123114	0
14721.1	0.0085743	-0.0121847	0
14761.1	0.00872702	-0.0122045	0
14801.1	0.00870793	-0.0122019	0
14841.1	0.0085743	-0.0121625	0
14881.1	0.00863157	-0.0120976	0
14921.1	0.00872702	-0.0121816	0
14961.1	0.00866975	-0.0121027	0
15001.1	0.00863157	-0.0120664	0
15041.1	0.00861248	-0.0120658	0
15081.1	0.00865066	-0.0120492	0
15121.1	0.00866975	-0.0120607	0
15161.1	0.00868884	-0.0119741	0
15201.1	0.00859339	-0.0119627	0
15241.1	0.00868884	-0.0119932	0
15281.1	0.0087843	-0.0119557	0
15321.1	0.00863157	-0.0119251	0
15361.1	0.00874612	-0.0119016	0
15401.1	0.0085743	-0.0119232	0
15441.1	0.00863157	-0.0117756	0
15481.1	0.00859339	-0.0117947	0
15521.1	0.00870793	-0.0118424	0
15561.1	0.00866975	-0.0117737	0
15601.1	0.00874612	-0.011747	0
15641.1	0.00863157	-0.0117998	0
15681.1	0.00853611	-0.0116732	0
15721.1	0.00874612	-0.0117406	0
15761.1	0.00868884	-0.0116866	0
15801.1	0.00866975	-0.0116547	0
15841.1	0.00859339	-0.0116586	0
15881.1	0.00866975	-0.0116694	0
15921.1	0.00866975	-0.0115644	0
15961.1	0.00866975	-0.0116395	0
16001.1	0.00865066	-0.0115937	0
16041.1	0.0087843	-0.0115771	0
16081.1	0.00865066	-0.0115358	0
16121.1	0.00863157	-0.0114747	0
16161.1	0.00870793	-0.0114861	0
16201.1	0.00863157	-0.01149	0
16241.1	0.00861248	-0.0114785	0
16281.1	0.00849793	-0.0113901	0
16321.1	0.00868884	-0.0113799	0
16361.1	0.00872702	-0.0113328	0
16401.1	0.00870793	-0.0113729	0
16441.1	0.00859339	-0.0113118	0
16481.1	0.00855521	-0.0113544	0
16521.1	0.00874612	-0.011245	0
16561.1	0.00868884	-0.0112202	0
16601.1	0.00872702	-0.0112354	0
16641.1	0.00865066	-0.0112482	0
16681.1	0.00872702	-0.0111693	0
16721.1	0.00859339	-0.0111998	0
16761.1	0.00866975	-0.0111947	0
16801.1	0.00870793	-0.0111686	0
16841.1	0.0087843	-0.0111928	0
16881.1	0.0087843	-0.0110999	0
16921.1	0.00872702	-0.0110942	0
16961.1	0.00870793	-0.0111349	0
17001.1	0.00866975	-0.0110478	0
17041.1	0.00872702	-0.0110509	0
17081.1	0.00861248	-0.0109727	0
17121.1	0.00859339	-0.0110777	0
17161.1	0.00870793	-0.0109924	0
17201.1	0.00874612	-0.0110465	0
17241.1	0.00874612	-0.0110019	0
17281.1	0.00863157	-0.010939	0
17321.1	0.00868884	-0.0109141	0
17361.1	0.00863157	-0.0109332	0
17401.1	0.00859339	-0.0109084	0
17441.1	0.00859339	-0.0108779	0
17481.1	0.00863157	-0.0109008	0
17521.1	0.00851702	-0.0108473	0
17561.1	0.0085743	-0.0108238	0
17601.1	0.00870793	-0.0108664	0
17641.1	0.00863157	-0.0108225	0
17681.1	0.00872702	-0.0107564	0
17721.1	0.00868884	-0.0107595	0
17761.1	0.00870793	-0.0107156	0
17801.1	0.00865066	-0.0107086	0
17841.1	0.00866975	-0.0107443	0
17881.1	0.00866975	-0.0106533	0
17921.1	0.00861248	-0.0106437	0
17961.1	0.00868884	-0.0106603	0
18001.1	0.00876521	-0.0106603	0
18041.1	0.00872702	-0.0106253	0
18081.1	0.00870793	-0.0106463	0
18121.1	0.00868884	-0.0106227	0
18161.1	0.00866975	-0.0105744	0
18201.1	0.00866975	-0.0105718	0
18241.1	0.00870793	-0.0105197	0
18281.1	0.00872702	-0.0104751	0
18321.1	0.00866975	-0.0104338	0
18361.1	0.00866975	-0.0104662	0
18401.1	0.00872702	-0.0104096	0
18441.1	0.00866975	-0.0104401	0
18481.1	0.00870793	-0.010477	0
18521.1	0.00868884	-0.0104579	0
18561.1	0.00865066	-0.010407	0
18601.1	0.00866975	-0.0103981	0
18641.1	0.00870793	-0.0103759	0
18681.1	0.00870793	-0.0103441	0
18721.1	0.00866975	-0.0103142	0
18761.1	0.00874612	-0.0103326	0
18801.1	0.00868884	-0.0103441	0
18841.1	0.00870793	-0.0102747	0
18881.1	0.00880339	-0.0102843	0
18921.1	0.00872702	-0.0103199	0
18961.1	0.00861248	-0.0102467	0
19001.1	0.00866975	-0.0102359	0
19041.1	0.00872702	-0.0102034	0
19081.1	0.0087843	-0.0102531	0
19121.1	0.00865066	-0.0102104	0
19161.1	0.00861248	-0.0102015	0
19201.1	0.00870793	-0.0101729	0
19241.1	0.00866975	-0.0101201	0
19281.1	0.00866975	-0.0101424	0
19321.1	0.00870793	-0.0101118	0
19361.1	0.00868884	-0.0101315	0
19401.1	0.0085743	-0.0101379	0
19441.1	0.00870793	-0.0100571	0
19481.1	0.00863157	-0.0100724	0
19521.1	0.00863157	-0.0100819	0
19561.1	0.00863157	-0.0100577	0
19601.1	0.00863157	-0.0100272	0
19641.1	0.00861248	-0.00998394	0
19681.1	0.00863157	-0.0100329	0
19721.1	0.00866975	-0.00996549	0
19761.1	0.00876521	-0.00993622	0
19801.1	0.00866975	-0.00994195	0
19841.1	0.00863157	-0.0100151	0
19881.1	0.00861248	-0.00992922	0
19921.1	0.00859339	-0.00992222	0
19961.1	0.00868884	-0.00990441	0
20001.1	0.00865066	-0.00984396	0
20041.1	0.00865066	-0.00985987	0
20081.1	0.00865066	-0.00983824	0
20121.1	0.00872702	-0.00983187	0
20161.1	0.00866975	-0.00987132	0
20201.1	0.00874612	-0.0098376	0
20241.1	0.00870793	-0.00978415	0
20281.1	0.00870793	-0.00974598	0
20321.1	0.00865066	-0.00983569	0
20361.1	0.00861248	-0.00977588	0
20401.1	0.00866975	-0.00978606	0
20441.1	0.00870793	-0.00977334	0
20481.1	0.00872702	-0.00979306	0
20521.1	0.00863157	-0.00974153	0
20561.1	0.00876521	-0.00971035	0
20601.1	0.00861248	-0.0097428	0
20641.1	0.00861248	-0.00977016	0
20681.1	0.00876521	-0.00973898	0
20721.1	0.00863157	-0.00974852	0
20761.1	0.00870793	-0.00968363	0
20801.1	0.00872702	-0.00973707	0
20841.1	0.00874612	-0.00963782	0
20881.1	0.00872702	-0.00962764	0
20921.1	0.00866975	-0.00961682	0
20961.1	0.00868884	-0.00969126	0
21001.1	0.00872702	-0.00956592	0
21041.1	0.00866975	-0.00963273	0
21081.1	0.00868884	-0.00955701	0
21121.1	0.00863157	-0.00961237	0
21161.1	0.00866975	-0.00954811	0
21201.1	0.00865066	-0.00953284	0
21241.1	0.00863157	-0.00952965	0
21281.1	0.00868884	-0.00959073	0
21321.1	0.00865066	-0.00952456	0
21361.1	0.00872702	-0.00948575	0
21401.1	0.00863157	-0.00947684	0
21441.1	0.00872702	-0.00952456	0
21481.1	0.00870793	-0.00951247	0
21521.1	0.00874612	-0.00949911	0
21561.1	0.00870793	-0.00941831	0
21601.1	0.00872702	-0.00943549	0
21641.1	0.00866975	-0.00941004	0
21681.1	0.00863157	-0.00938459	0
21721.1	0.00866975	-0.00933305	0
21761.1	0.00866975	-0.00928979	0
21801.1	0.00853611	-0.00938141	0
21841.1	0.00876521	-0.00932478	0
21881.1	0.00861248	-0.00936359	0
21921.1	0.00865066	-0.00929615	0
21961.1	0.00874612	-0.00932923	0
22001.1	0.00870793	-0.00932351	0
22041.1	0.00866975	-0.00927197	0
22081.1	0.00859339	-0.00916063	0
22121.1	0.00865066	-0.0092637	0
22161.1	0.00874612	-0.00922425	0
22201.1	0.00859339	-0.00924652	0
22241.1	0.00866975	-0.00924079	0
22281.1	0.00865066	-0.00920389	0
22321.1	0.00859339	-0.00920898	0
22361.1	0.00870793	-0.00915045	0
22401.1	0.00859339	-0.00922489	0
22441.1	0.00865066	-0.00918989	0
22481.1	0.00865066	-0.00912627	0
22521.1	0.00876521	-0.00915681	0
22561.1	0.00868884	-0.00908428	0
22601.1	0.00868884	-0.00904928	0
22641.1	0.00870793	-0.00909764	0
22681.1	0.00870793	-0.00913709	0
22721.1	0.00872702	-0.00906264	0
22761.1	0.00868884	-0.00904674	0
22801.1	0.00863157	-0.0090741	0
22841.1	0.00866975	-0.00899393	0
22881.1	0.00872702	-0.00901747	0
22921.1	0.00868884	-0.00896275	0
22961.1	0.00855521	-0.00901365	0
23001.1	0.0085743	-0.00896339	0
23041.1	0.00866975	-0.00893603	0
23081.1	0.00866975	-0.0088565	0
23121.1	0.00870793	-0.00888131	0
23161.1	0.00865066	-0.00893221	0
23201.1	0.00870793	-0.00889404	0
23241.1	0.00863157	-0.00889722	0
23281.1	0.00874612	-0.00884059	0
23321.1	0.00859339	-0.00885332	0
23361.1	0.00859339	-0.00886031	0
23401.1	0.00861248	-0.00881069	0
23441.1	0.00866975	-0.00885204	0
23481.1	0.00872702	-0.00883232	0
23521.1	0.00870793	-0.00872734	0
23561.1	0.00882248	-0.00877633	0
23601.1	0.0087843	-0.00870952	0
23641.1	0.00868884	-0.00879796	0
23681.1	0.00868884	-0.00872861	0
23721.1	0.00865066	-0.00876233	0
23761.1	0.00865066	-0.00869616	0
23801.1	0.00876521	-0.00875215	0
23841.1	0.00859339	-0.00865926	0
23881.1	0.00865066	-0.00867007	0
23921.1	0.00861248	-0.00872288	0
23961.1	0.00861248	-0.00864208	0
24001.1	0.00874612	-0.00866944	0
24041.1	0.00865066	-0.00860072	0
24081.1	0.00865066	-0.00858545	0
24121.1	0.00868884	-0.00860963	0
24161.1	0.0087843	-0.00863381	0
24201.1	0.00866975	-0.00861599	0
24241.1	0.00868884	-0.0086179	0
24281.1	0.00868884	-0.00855937	0
24321.1	0.00863157	-0.00857018	0
24361.1	0.00882248	-0.00852183	0
24401.1	0.00870793	-0.00859182	0
24441.1	0.00861248	-0.00858863	0
24481.1	0.00866975	-0.00849192	0
24521.1	0.00870793	-0.00854091	0
24561.1	0.00868884	-0.00851165	0
24601.1	0.00874612	-0.00853519	0
24641.1	0.00863157	-0.0084932	0
24681.1	0.0087843	-0.00847538	0
24721.1	0.00863157	-0.00845757	0
24761.1	0.00866975	-0.00845057	0
24801.1	0.00865066	-0.00851165	0
24841.1	0.00870793	-0.00843402	0
24881.1	0.00865066	-0.00837167	0
24921.1	0.00866975	-0.00840667	0
24961.1	0.00866975	-0.00834622	0
25001.1	0.00866975	-0.0083914	0
25041.1	0.00874612	-0.00833922	0
25081.1	0.00866975	-0.00838122	0
25121.1	0.00868884	-0.00830932	0
25161.1	0.00866975	-0.00832332	0
25201.1	0.0087843	-0.00836086	0
25241.1	0.00866975	-0.00830487	0
25281.1	0.00870793	-0.00836022	0
25321.1	0.00863157	-0.00832968	0
25361.1	0.00868884	-0.00830932	0
25401.1	0.00872702	-0.00827305	0
25441.1	0.00866975	-0.00822215	0
25481.1	0.00865066	-0.00825142	0
25521.1	0.00861248	-0.00822851	0
25561.1	0.00865066	-0.00823424	0
25601.1	0.00868884	-0.00819416	0
25641.1	0.0085743	-0.00814389	0
25681.1	0.00868884	-0.0081318	0
25721.1	0.00876521	-0.00819098	0
25761.1	0.00872702	-0.00812608	0
25801.1	0.0085743	-0.0081318	0
25841.1	0.00866975	-0.00808663	0
25881.1	0.00866975	-0.00818525	0
25921.1	0.00865066	-0.00804973	0
25961.1	0.00865066	-0.00815153	0
26001.1	0.00866975	-0.00804336	0
26041.1	0.00866975	-0.00809999	0
26081.1	0.00868884	-0.00801473	0
26121.1	0.00870793	-0.00800137	0
26161.1	0.00870793	-0.00801601	0
26201.1	0.00861248	-0.0080739	0
26241.1	0.00876521	-0.00798101	0
26281.1	0.00870793	-0.00805545	0
26321.1	0.00866975	-0.00800646	0
26361.1	0.00868884	-0.00798928	0
26401.1	0.00866975	-0.00795238	0
26441.1	0.00868884	-0.0079702	0
26481.1	0.00865066	-0.00793266	0
26521.1	0.0087843	-0.00793266	0
26561.1	0.00870793	-0.00789448	0
26601.1	0.00863157	-0.00790403	0
26641.1	0.00866975	-0.00791102	0
26681.1	0.00859339	-0.00787158	0
26721.1	0.00868884	-0.00786076	0
26761.1	0.00868884	-0.00787094	0
26801.1	0.00868884	-0.00789321	0
26841.1	0.00876521	-0.00789321	0
26881.1	0.00866975	-0.00780922	0
26921.1	0.0085743	-0.00783976	0
26961.1	0.00872702	-0.00775005	0
27001.1	0.00866975	-0.00785567	0
27041.1	0.00872702	-0.00781686	0
27081.1	0.00865066	-0.00781495	0
27121.1	0.00872702	-0.00781431	0
27161.1	0.00865066	-0.0077526	0
27201.1	0.00874612	-0.00777041	0
27241.1	0.00865066	-0.00774242	0
27281.1	0.00872702	-0.00771633	0
27321.1	0.00872702	-0.00767116	0
27361.1	0.00863157	-0.00766225	0
27401.1	0.00865066	-0.00766734	0
27441.1	0.00870793	-0.00768579	0
27481.1	0.00872702	-0.00770742	0
27521.1	0.00874612	-0.00766416	0
27561.1	0.00874612	-0.00768452	0
27601.1	0.00863157	-0.00762153	0
27641.1	0.00872702	-0.00756427	0
27681.1	0.00870793	-0.00762026	0
27721.1	0.00870793	-0.00763362	0
27761.1	0.00868884	-0.00765843	0
27801.1	0.00863157	-0.00752673	0
27841.1	0.00876521	-0.00761453	0
27881.1	0.0087843	-0.00751146	0
27921.1	0.00868884	-0.00748601	0
27961.1	0.00863157	-0.00751273	0
28001.1	0.00866975	-0.00745419	0
28041.1	0.00876521	-0.00753054	0
28081.1	0.00874612	-0.00746692	0
28121.1	0.00865066	-0.0074561	0
28161.1	0.00874612	-0.00752991	0
28201.1	0.00866975	-0.00746883	0
28241.1	0.00872702	-0.00741793	0
28281.1	0.00870793	-0.00747519	0
28321.1	0.00865066	-0.00738802	0
28361.1	0.00872702	-0.00742365	0
28401.1	0.00863157	-0.00732822	0
28441.1	0.00866975	-0.00731358	0
28481.1	0.00870793	-0.00741665	0
28521.1	0.00863157	-0.00735367	0
28561.1	0.00866975	-0.00731358	0
28601.1	0.00865066	-0.00731549	0
28641.1	0.00880339	-0.00730913	0
28681.1	0.00874612	-0.00736639	0
28721.1	0.00866975	-0.00728495	0
28761.1	0.00872702	-0.00727668	0
28801.1	0.00870793	-0.00723723	0
28841.1	0.00865066	-0.00725886	0
28881.1	0.00868884	-0.0073034	0
28921.1	0.00859339	-0.00725696	0
28961.1	0.0087843	-0.00727159	0
29001.1	0.00874612	-0.00724232	0
29041.1	0.00872702	-0.00722133	0
29081.1	0.00868884	-0.00722196	0
29121.1	0.00886066	-0.00722832	0
29161.1	0.00861248	-0.00721178	0
29201.1	0.00880339	-0.00715134	0
29241.1	0.00865066	-0.00719015	0
29281.1	0.00859339	-0.00711698	0
29321.1	0.00866975	-0.00712843	0
29361.1	0.00870793	-0.00712398	0
29401.1	0.00863157	-0.00710425	0
29441.1	0.00868884	-0.00713734	0
29481.1	0.00865066	-0.00708326	0
29521.1	0.00863157	-0.00709217	0
29561.1	0.00865066	-0.00712907	0
29601.1	0.00872702	-0.00705081	0
29641.1	0.00866975	-0.00704572	0
29681.1	0.00876521	-0.007026	0
29721.1	0.00872702	-0.00700245	0
29761.1	0.00865066	-0.00701963	0
29801.1	0.00870793	-0.00700563	0
29841.1	0.00872702	-0.00695982	0
29881.1	0.00868884	-0.00698464	0
29921.1	0.00874612	-0.00690765	0
29961.1	0.00866975	-0.00697255	0
30001.1	0.00870793	-0.00690702	0
30041.1	0.00872702	-0.00703745	0
30081.1	0.00865066	-0.00692801	0
30121.1	0.00870793	-0.0069611	0
30161.1	0.00863157	-0.00692928	0
30201.1	0.00863157	-0.0069331	0
30241.1	0.00880339	-0.0068663	0
30281.1	0.00866975	-0.00668115	0
30321.1	0.00866975	-0.00680331	0
30361.1	0.00866975	-0.00687202	0
30401.1	0.0085743	-0.00677595	0
30441.1	0.00865066	-0.00679185	0
30481.1	0.00865066	-0.00677022	0
30521.1	0.00872702	-0.00686884	0
30561.1	0.00874612	-0.00676895	0
30601.1	0.00863157	-0.00680331	0
30641.1	0.00861248	-0.00678867	0
30681.1	0.00876521	-0.00676322	0
30721.1	0.00868884	-0.00676513	0
30761.1	0.00865066	-0.00674095	0
30801.1	0.00870793	-0.00675304	0
30841.1	0.00866975	-0.00670405	0
30881.1	0.0087843	-0.0067435	0
30921.1	0.00859339	-0.00671996	0
30961.1	0.00865066	-0.00665633	0
31001.1	0.00870793	-0.00670914	0
31041.1	0.00872702	-0.00671041	0
31081.1	0.00880339	-0.00665124	0
31121.1	0.00866975	-0.00668051	0
31161.1	0.00874612	-0.00663788	0
31201.1	0.00863157	-0.00661116	0
31241.1	0.00874612	-0.00668496	0
31281.1	0.00866975	-0.00662197	0
31321.1	0.00861248	-0.00664361	0
31361.1	0.0087843	-0.00662834	0
31401.1	0.00866975	-0.00659716	0
31441.1	0.00870793	-0.00658443	0
31481.1	0.00865066	-0.00664679	0
31521.1	0.00865066	-0.00661307	0
31561.1	0.0087843	-0.00657744	0
31601.1	0.00866975	-0.00655644	0
31641.1	0.00868884	-0.00657489	0
31681.1	0.00855521	-0.0065908	0
31721.1	0.0085743	-0.00659207	0
31761.1	0.00866975	-0.00657871	0
31801.1	0.00863157	-0.00653862	0
31841.1	0.00859339	-0.00648709	0
31881.1	0.00870793	-0.00651508	0
31921.1	0.00866975	-0.00651445	0
31961.1	0.00865066	-0.00645782	0
32001.1	0.00868884	-0.00642537	0
32041.1	0.00868884	-0.00647691	0
32081.1	0.00870793	-0.00647882	0
32121.1	0.00870793	-0.00639356	0
32161.1	0.00870793	-0.00642219	0
32201.1	0.00861248	-0.00646609	0
32241.1	0.00863157	-0.00646164	0
32281.1	0.00866975	-0.00645464	0
32321.1	0.00868884	-0.00645909	0
32361.1	0.00876521	-0.00645528	0
32401.1	0.00865066	-0.00641965	0
32441.1	0.00859339	-0.00640374	0
32481.1	0.00865066	-0.00633948	0
32521.1	0.00876521	-0.00636684	0
32561.1	0.00872702	-0.00636238	0
32601.1	0.00870793	-0.00635348	0
32641.1	0.00870793	-0.00641901	0
32681.1	0.0085743	-0.00631975	0
32721.1	0.00870793	-0.00635475	0
32761.1	0.00876521	-0.00638847	0
32801.1	0.0087843	-0.00632294	0
32841.1	0.00861248	-0.00630194	0
32881.1	0.00861248	-0.00632866	0
32921.1	0.00865066	-0.0063802	0
32961.1	0.00865066	-0.00630194	0
33001.1	0.00872702	-0.00636111	0
33041.1	0.00870793	-0.00626567	0
33081.1	0.00861248	-0.00629621	0
33121.1	0.00874612	-0.00628158	0
33161.1	0.0087843	-0.0062873	0
33201.1	0.00880339	-0.00624213	0
33241.1	0.00876521	-0.00626122	0
33281.1	0.0085743	-0.00625613	0
33321.1	0.00874612	-0.00617851	0
33361.1	0.00866975	-0.00620714	0
33401.1	0.00865066	-0.00620205	0
33441.1	0.00870793	-0.00621859	0
33481.1	0.00876521	-0.00622304	0
33521.1	0.00874612	-0.00615496	0
33561.1	0.00876521	-0.00614542	0
33601.1	0.00872702	-0.00621668	0
33641.1	0.00872702	-0.00619632	0
33681.1	0.00870793	-0.00613842	0
33721.1	0.00861248	-0.00607734	0
33761.1	0.00868884	-0.00615751	0
33801.1	0.00874612	-0.00615115	0
33841.1	0.00872702	-0.00608116	0
33881.1	0.00865066	-0.00612315	0
33921.1	0.00866975	-0.00608307	0
33961.1	0.00866975	-0.00604489	0
34001.1	0.00861248	-0.00607098	0
34041.1	0.00866975	-0.00610343	0
34081.1	0.00872702	-0.00607607	0
34121.1	0.0085743	-0.00610406	0
34161.1	0.0087843	-0.00605889	0
34201.1	0.00866975	-0.00601117	0
34241.1	0.00872702	-0.00601753	0
34281.1	0.00874612	-0.00604426	0
34321.1	0.00865066	-0.00606843	0
34361.1	0.00866975	-0.00602071	0
34401.1	0.00872702	-0.00602517	0
34441.1	0.00876521	-0.00604044	0
34481.1	0.00855521	-0.00600099	0
34521.1	0.00876521	-0.00591701	0
34561.1	0.00861248	-0.00594246	0
34601.1	0.00868884	-0.00591319	0
34641.1	0.00868884	-0.0059151	0
34681.1	0.00868884	-0.0060258	0
34721.1	0.00866975	-0.00592591	0
34761.1	0.00863157	-0.00592782	0
34801.1	0.00866975	-0.00594055	0
34841.1	0.00863157	-0.00593864	0
34881.1	0.00863157	-0.00590555	0
34921.1	0.00872702	-0.0058871	0
34961.1	0.00866975	-0.00585274	0
35001.1	0.00870793	-0.00590873	0
35041.1	0.00861248	-0.00587947	0
35081.1	0.00872702	-0.00584002	0
35121.1	0.00870793	-0.00592146	0
35161.1	0.00872702	-0.00588328	0
35201.1	0.00870793	-0.00581012	0
35241.1	0.00865066	-0.0058222	0
35281.1	0.00872702	-0.0058661	0
35321.1	0.0087843	-0.00585974	0
35361.1	0.00868884	-0.00580439	0
35401.1	0.00872702	-0.00583302	0
35441.1	0.00870793	-0.00582029	0
35481.1	0.0085743	-0.00581012	0
35521.1	0.00859339	-0.00578975	0
35561.1	0.00866975	-0.00582538	0
35601.1	0.00874612	-0.00581202	0
35641.1	0.00872702	-0.00578848	0
35681.1	0.00866975	-0.0057853	0
35721.1	0.00861248	-0.00569813	0
35761.1	0.00872702	-0.00577767	0
35801.1	0.00861248	-0.00579421	0
35841.1	0.00868884	-0.00571213	0
35881.1	0.00866975	-0.00579421	0
35921.1	0.00861248	-0.00572677	0
35961.1	0.00870793	-0.00576367	0
36001.1	0.00859339	-0.00576303	0
36041.1	0.0085743	-0.00572931	0
36081.1	0.00868884	-0.0057414	0
36121.1	0.00870793	-0.00571659	0
36161.1	0.00872702	-0.0056625	0
36201.1	0.0085743	-0.00572358	0
36241.1	0.00863157	-0.00565932	0
36281.1	0.00870793	-0.00571213	0
36321.1	0.00872702	-0.00569241	0
36361.1	0.00861248	-0.00565487	0
36401.1	0.00870793	-0.00561288	0
36441.1	0.00874612	-0.00563769	0
36481.1	0.00865066	-0.00562051	0
36521.1	0.00859339	-0.00560588	0
36561.1	0.00866975	-0.00563005	0
36601.1	0.00870793	-0.00567905	0
36641.1	0.00870793	-0.00556897	0
36681.1	0.00874612	-0.00555943	0
36721.1	0.00863157	-0.00558552	0
36761.1	0.00866975	-0.00562496	0
36801.1	0.00861248	-0.00559888	0
36841.1	0.00866975	-0.00563387	0
36881.1	0.00870793	-0.00559315	0
36921.1	0.00874612	-0.00561797	0
36961.1	0.00872702	-0.00550599	0
37001.1	0.00859339	-0.00558043	0
37041.1	0.00874612	-0.00555116	0
37081.1	0.00874612	-0.00549899	0
37121.1	0.00859339	-0.00547099	0
37161.1	0.00868884	-0.00553716	0
37201.1	0.00866975	-0.00550408	0
37241.1	0.00874612	-0.00551298	0
37281.1	0.00870793	-0.00551362	0
37321.1	0.00865066	-0.00554225	0
37361.1	0.00861248	-0.00548244	0
37401.1	0.00872702	-0.00547608	0
37441.1	0.00865066	-0.0055747	0
37481.1	0.00876521	-0.00549899	0
37521.1	0.00865066	-0.00544045	0
37561.1	0.00872702	-0.00552253	0
37601.1	0.00865066	-0.00543536	0
37641.1	0.00866975	-0.00544681	0
37681.1	0.00866975	-0.00546018	0
37721.1	0.00866975	-0.00540355	0
37761.1	0.00868884	-0.00540037	0
37801.1	0.00859339	-0.00544363	0
37841.1	0.00876521	-0.005429	0
37881.1	0.00863157	-0.00549326	0
37921.1	0.00866975	-0.00546717	0
37961.1	0.00870793	-0.00541627	0
38001.1	0.00859339	-0.00545509	0
38041.1	0.00865066	-0.00543472	0
38081.1	0.00865066	-0.00536792	0
38121.1	0.00868884	-0.00542709	0
38161.1	0.00874612	-0.00536283	0
38201.1	0.00872702	-0.00534947	0
38241.1	0.00874612	-0.00531511	0
38281.1	0.00872702	-0.00542136	0
38321.1	0.00865066	-0.00534183	0
38361.1	0.00874612	-0.00538064	0
38401.1	0.00865066	-0.00537619	0
38441.1	0.00866975	-0.00540546	0
38481.1	0.00876521	-0.00535201	0
38521.1	0.00870793	-0.00527503	0
38561.1	0.00870793	-0.00533356	0
38601.1	0.00865066	-0.0052833	0
38641.1	0.00861248	-0.00533229	0
38681.1	0.00865066	-0.00528775	0
38721.1	0.00866975	-0.00530302	0
38761.1	0.00874612	-0.00526612	0
38801.1	0.00882248	-0.00525976	0
38841.1	0.00872702	-0.00523939	0
38881.1	0.00880339	-0.00533229	0
38921.1	0.00861248	-0.00525976	0
38961.1	0.00866975	-0.00522285	0
39001.1	0.00863157	-0.00528839	0
39041.1	0.00868884	-0.00527057	0
39081.1	0.00861248	-0.00519486	0
39121.1	0.00880339	-0.00522031	0
39161.1	0.00874612	-0.00522158	0
39201.1	0.00868884	-0.00519677	0
39241.1	0.00868884	-0.00528648	0
39281.1	0.00868884	-0.00517195	0
39321.1	0.00874612	-0.00521904	0
39361.1	0.00868884	-0.00527503	0
39401.1	0.00866975	-0.00524576	0
39441.1	0.00865066	-0.00521776	0
39481.1	0.00874612	-0.00515668	0
39521.1	0.00872702	-0.00518022	0
39561.1	0.00874612	-0.00525403	0
39601.1	0.00872702	-0.00515032	0
39641.1	0.00870793	-0.00518849	0
39681.1	0.00874612	-0.00513314	0
39721.1	0.00880339	-0.00521585	0
39761.1	0.00859339	-0.00520631	0
39801.1	0.00863157	-0.00513632	0
39841.1	0.00861248	-0.00510578	0
39881.1	0.00870793	-0.00512996	0
39921.1	0.00866975	-0.0050797	0
39961.1	0.00865066	-0.00510515	0
40001.1	0.00866975	-0.00512042	0
40041.1	0.00870793	-0.00508988	0
40081.1	0.00870793	-0.00509687	0
40121.1	0.00859339	-0.00507715	0
40161.1	0.00865066	-0.00510833	0
40201.1	0.0087843	-0.00512869	0
40241.1	0.00872702	-0.00510705	0
40281.1	0.00880339	-0.00510069	0
40321.1	0.00863157	-0.00514078	0
40361.1	0.00874612	-0.0050956	0
40401.1	0.00872702	-0.00511342	0
40441.1	0.00861248	-0.00513569	0
40481.1	0.00870793	-0.00511151	0
40521.1	0.0085743	-0.00506697	0
40561.1	0.00863157	-0.00501543	0
40601.1	0.00874612	-0.0050218	0
40641.1	0.00868884	-0.00503834	0
40681.1	0.00865066	-0.00501607	0
40721.1	0.00872702	-0.00500144	0
40761.1	0.00866975	-0.0050078	0
40801.1	0.00870793	-0.00503389	0
40841.1	0.00865066	-0.00500462	0
40881.1	0.0087843	-0.00498935	0
40921.1	0.00866975	-0.00503897	0
40961.1	0.00872702	-0.00498807	0
41001.1	0.00880339	-0.00501543	0
41041.1	0.00851702	-0.00503834	0
41081.1	0.00866975	-0.00498298	0
41121.1	0.00880339	-0.00501734	0
41161.1	0.00872702	-0.00498807	0
41201.1	0.00880339	-0.00505106	0
41241.1	0.00866975	-0.00500653	0
41281.1	0.00872702	-0.00499953	0
41321.1	0.00865066	-0.00501989	0
41361.1	0.00866975	-0.00496962	0
41401.1	0.00876521	-0.00495181	0
41441.1	0.00870793	-0.0049868	0
41481.1	0.00874612	-0.00500335	0
41521.1	0.00865066	-0.00498362	0
41561.1	0.00870793	-0.00495817	0
41601.1	0.00866975	-0.004871	0
41641.1	0.00870793	-0.00495435	0
41681.1	0.00882248	-0.00492318	0
41721.1	0.00874612	-0.0049499	0
41761.1	0.00870793	-0.00491045	0
41801.1	0.0087843	-0.00485192	0
41841.1	0.00872702	-0.00484937	0
41881.1	0.0085743	-0.00492254	0
41921.1	0.0085743	-0.00484174	0
41961.1	0.00868884	-0.00493081	0
42001.1	0.00872702	-0.00490027	0
42041.1	0.00870793	-0.00484174	0
42081.1	0.00866975	-0.0048621	0
42121.1	0.00865066	-0.00484492	0
42161.1	0.00876521	-0.00489073	0
42201.1	0.00866975	-0.00483537	0
42241.1	0.00866975	-0.00483219	0
42281.1	0.00866975	-0.00478193	0
42321.1	0.00865066	-0.00483092	0
42361.1	0.00876521	-0.00482838	0
42401.1	0.00872702	-0.00486337	0
42441.1	0.00872702	-0.00489709	0
42481.1	0.00880339	-0.00480356	0
42521.1	0.00870793	-0.00490345	0
42561.1	0.00874612	-0.00489009	0
42601.1	0.00866975	-0.00490663	0
42641.1	0.00866975	-0.00477175	0
42681.1	0.00865066	-0.00478384	0
42721.1	0.00870793	-0.00481692	0
42761.1	0.00865066	-0.00477938	0
42801.1	0.00865066	-0.0048201	0
42841.1	0.00870793	-0.00483601	0
42881.1	0.00872702	-0.00478384	0
42921.1	0.00870793	-0.00477811	0
42961.1	0.00882248	-0.0047603	0
43001.1	0.00870793	-0.00476984	0
43041.1	0.00876521	-0.00472276	0
43081.1	0.00866975	-0.00476284	0
43121.1	0.00872702	-0.00476857	0
43161.1	0.00866975	-0.00479593	0
43201.1	0.00865066	-0.0047183	0
43241.1	0.00863157	-0.00478575	0
43281.1	0.00872702	-0.00474503	0
43321.1	0.00874612	-0.00472721	0
43361.1	0.00876521	-0.00474121	0
43401.1	0.00872702	-0.00472721	0
43441.1	0.00868884	-0.00477429	0
43481.1	0.00870793	-0.00473166	0
43521.1	0.00866975	-0.00472276	0
43561.1	0.00870793	-0.00471194	0
43601.1	0.00872702	-0.00477366	0
43641.1	0.00861248	-0.00469858	0
43681.1	0.00866975	-0.00470049	0
43721.1	0.00868884	-0.00469285	0
43761.1	0.00870793	-0.00470431	0
43801.1	0.00863157	-0.00467313	0
43841.1	0.00861248	-0.00469349	0
43881.1	0.00863157	-0.00464768	0
43921.1	0.00868884	-0.00469858	0
43961.1	0.00874612	-0.00470049	0
44001.1	0.00876521	-0.00474566	0
44041.1	0.00865066	-0.0047113	0
44081.1	0.00855521	-0.00467186	0
44121.1	0.00865066	-0.00464641	0
44161.1	0.00865066	-0.00464704	0
44201.1	0.00868884	-0.00465977	0
44241.1	0.00866975	-0.00462732	0
44281.1	0.00863157	-0.00468522	0
44321.1	0.00876521	-0.00461141	0
44361.1	0.00872702	-0.00459996	0
44401.1	0.00865066	-0.00465213	0
44441.1	0.00876521	-0.00465722	0
44481.1	0.00870793	-0.00462541	0
44521.1	0.00868884	-0.00466295	0
44561.1	0.00870793	-0.0046305	0
44601.1	0.00870793	-0.00463877	0
44641.1	0.00855521	-0.00459932	0
44681.1	0.00870793	-0.00457196	0
44721.1	0.00868884	-0.00461714	0
44761.1	0.0085743	-0.00461841	0
44801.1	0.00868884	-0.00460187	0
44841.1	0.00882248	-0.0045427	0
44881.1	0.00870793	-0.00460314	0
44921.1	0.00863157	-0.00455479	0
44961.1	0.00866975	-0.00454651	0
45001.1	0.00863157	-0.00453761	0
45041.1	0.00868884	-0.00453888	0
45081.1	0.0087843	-0.00460887	0
45121.1	0.00870793	-0.00462923	0
45161.1	0.00861248	-0.0045427	0
45201.1	0.00866975	-0.00454842	0
45241.1	0.0085743	-0.00452297	0
45281.1	0.00872702	-0.00453761	0
45321.1	0.00870793	-0.0045287	0
45361.1	0.00874612	-0.0045217	0
45401.1	0.00870793	-0.00450834	0
45441.1	0.00868884	-0.00451025	0
45481.1	0.00865066	-0.0045357	0
45521.1	0.00876521	-0.00460209	0
45561.1	0.00868884	-0.00456798	0
45601.1	0.00868884	-0.00455436	0
45641.1	0.00861248	-0.0045016	0
45681.1	0.00870793	-0.00454468	0
45721.1	0.00868884	-0.00449931	0
45761.1	0.00870793	-0.00457097	0
45801.1	0.00874612	-0.00455907	0
45841.1	0.00865066	-0.0044883	0
45881.1	0.00868884	-0.00453915	0
45921.1	0.00865066	-0.00449103	0
45961.1	0.00863157	-0.00447971	0
46001.1	0.00870793	-0.00450344	0
46041.1	0.00872702	-0.00448874	0
46081.1	0.0085743	-0.00452986	0
46121.1	0.00880339	-0.0044608	0
46161.1	0.00884157	-0.00446411	0
46201.1	0.00868884	-0.00449243	0
46241.1	0.00863157	-0.0044932	0
46281.1	0.00868884	-0.00448002	0
46321.1	0.00870793	-0.00451674	0
46361.1	0.00868884	-0.00443885	0
46401.1	0.00882248	-0.00449052	0
46441.1	0.00874612	-0.00447881	0
46481.1	0.0087843	-0.00443452	0
46521.1	0.00865066	-0.00450064	0
46561.1	0.00868884	-0.00442548	0
46601.1	0.00876521	-0.00444069	0
46641.1	0.00868884	-0.00449358	0
46681.1	0.00870793	-0.00448709	0
46721.1	0.00868884	-0.00442147	0
46761.1	0.00861248	-0.00444623	0
46801.1	0.00872702	-0.00441727	0
46841.1	0.00866975	-0.00447589	0
46881.1	0.00880339	-0.00442701	0
46921.1	0.00876521	-0.00446233	0
46961.1	0.00868884	-0.00442574	0
47001.1	0.00863157	-0.00448002	0
47041.1	0.00872702	-0.00438991	0
47081.1	0.00868884	-0.00437629	0
47121.1	0.00868884	-0.0043831	0
47161.1	0.00880339	-0.00443344	0
47201.1	0.00880339	-0.00437578	0
47241.1	0.00866975	-0.00440983	0
47281.1	0.0087843	-0.00437622	0
47321.1	0.00876521	-0.0044419	0
47361.1	0.00863157	-0.00444241	0
47401.1	0.00866975	-0.00439646	0
47441.1	0.00865066	-0.00442695	0
47481.1	0.00876521	-0.00441574	0
47521.1	0.00866975	-0.00441804	0
47561.1	0.00866975	-0.00434179	0
47601.1	0.00874612	-0.00434917	0
47641.1	0.0087843	-0.00438742	0
47681.1	0.00874612	-0.00439449	0
47721.1	0.00882248	-0.00432537	0
47761.1	0.00868884	-0.00433053	0
47801.1	0.00865066	-0.00433778	0
47841.1	0.00866975	-0.00439481	0
47881.1	0.00863157	-0.00439328	0
47921.1	0.00861248	-0.00433734	0
47961.1	0.00872702	-0.00438952	0
48001.1	0.00870793	-0.0043003	0
48041.1	0.00868884	-0.00438271	0
48081.1	0.00874612	-0.00431659	0
48121.1	0.00876521	-0.00431634	0
48161.1	0.00876521	-0.00434994	0
48201.1	0.00870793	-0.00431888	0
48241.1	0.00868884	-0.00436649	0
48281.1	0.00865066	-0.00432079	0
48321.1	0.00870793	-0.00433282	0
48361.1	0.00866975	-0.00430863	0
48401.1	0.00874612	-0.00434262	0
48441.1	0.00870793	-0.00433893	0
48481.1	0.00865066	-0.00432047	0
48521.1	0.00861248	-0.00428108	0
48561.1	0.00865066	-0.00432289	0
48601.1	0.00872702	-0.00433155	0
48641.1	0.00866975	-0.00433307	0
48681.1	0.00870793	-0.0042968	0
48721.1	0.00874612	-0.00432582	0
48761.1	0.00872702	-0.00428833	0
48801.1	0.00874612	-0.00430412	0
48841.1	0.00872702	-0.00433435	0
48881.1	0.00872702	-0.00426027	0
48921.1	0.00868884	-0.00428948	0
48961.1	0.0087843	-0.00427153	0
49001.1	0.00870793	-0.0042343	0
49041.1	0.00865066	-0.00429393	0
49081.1	0.00863157	-0.00424028	0
49121.1	0.00872702	-0.00426911	0
49161.1	0.00874612	-0.0042154	0
49201.1	0.00863157	-0.00423086	0
49241.1	0.00865066	-0.00425168	0
49281.1	0.00870793	-0.00426848	0
49321.1	0.00865066	-0.00420152	0
49361.1	0.00863157	-0.00419567	0
49401.1	0.00870793	-0.0041965	0
49441.1	0.00866975	-0.00418835	0
49481.1	0.0085743	-0.00420973	0
49521.1	0.00863157	-0.00418676	0
49561.1	0.00876521	-0.0042546	0
49601.1	0.00865066	-0.00421591	0
49641.1	0.00870793	-0.00424378	0
49681.1	0.00870793	-0.00424728	0
49721.1	0.00868884	-0.00416983	0
49761.1	0.00876521	-0.00416805	0
49801.1	0.00866975	-0.00417015	0
49841.1	0.00859339	-0.00418714	0
49881.1	0.00866975	-0.00422335	0
49921.1	0.00870793	-0.00416875	0
49961.1	0.00868884	-0.00414412	0
50001.1	0.00874612	-0.00417562	0
50041.1	0.00866975	-0.00421801	0
50081.1	0.0087843	-0.00413375	0
50121.1	0.0087843	-0.00414011	0
50161.1	0.00872702	-0.00415882	0
50201.1	0.00882248	-0.00417836	0
50241.1	0.00865066	-0.00420522	0
50281.1	0.00865066	-0.00415322	0
50321.1	0.00870793	-0.00410803	0
50361.1	0.00865066	-0.00412872	0
50401.1	0.00866975	-0.00418332	0
50441.1	0.00866975	-0.00414749	0
50481.1	0.00870793	-0.0041214	0
50521.1	0.00863157	-0.00416805	0
50561.1	0.00863157	-0.00409671	0
50601.1	0.00865066	-0.00409919	0
50641.1	0.00874612	-0.00415908	0
50681.1	0.00865066	-0.00413744	0
50721.1	0.00870793	-0.00417002	0
50761.1	0.00872702	-0.00415137	0
50801.1	0.00865066	-0.00410924	0
50841.1	0.00866975	-0.00410962	0
50881.1	0.00870793	-0.00413801	0
50921.1	0.00863157	-0.00408264	0
50961.1	0.00866975	-0.00411796	0
51001.1	0.00870793	-0.00410969	0
51041.1	0.00874612	-0.0041319	0
51081.1	0.00870793	-0.00405572	0
51121.1	0.00859339	-0.00413674	0
51161.1	0.00874612	-0.004134	0
51201.1	0.00863157	-0.004134	0
51241.1	0.00863157	-0.00410517	0
51281.1	0.00874612	-0.00409009	0
51321.1	0.00874612	-0.00405254	0
51361.1	0.00880339	-0.00407519	0
51401.1	0.00868884	-0.0040871	0
51441.1	0.00851702	-0.00406756	0
51481.1	0.00861248	-0.0040491	0
51521.1	0.00868884	-0.00409613	0
51561.1	0.00865066	-0.0040694	0
51601.1	0.00874612	-0.00401569	0
51641.1	0.00863157	-0.00402218	0
51681.1	0.00868884	-0.00405426	0
51721.1	0.00872702	-0.00408366	0
51761.1	0.00861248	-0.00408449	0
51801.1	0.00865066	-0.00403497	0
51841.1	0.00872702	-0.0040526	0
51881.1	0.00868884	-0.00408493	0
51921.1	0.00870793	-0.0039994	0
51961.1	0.00861248	-0.00399208	0
52001.1	0.00870793	-0.00407927	0
52041.1	0.00870793	-0.00400003	0
52081.1	0.00865066	-0.00407042	0
52121.1	0.00872702	-0.00406724	0
52161.1	0.00872702	-0.00398533	0
52201.1	0.00866975	-0.00396656	0
52241.1	0.00870793	-0.00405757	0
52281.1	0.00872702	-0.00399316	0
52321.1	0.00863157	-0.00398234	0
52361.1	0.00868884	-0.00400201	0
52401.1	0.00868884	-0.00404236	0
52441.1	0.00865066	-0.00397789	0
52481.1	0.00866975	-0.00397273	0
52521.1	0.00868884	-0.00396688	0
52561.1	0.00863157	-0.00396	0
52601.1	0.00866975	-0.00397871	0
52641.1	0.00868884	-0.00397146	0
52681.1	0.00880339	-0.0040099	0
52721.1	0.00872702	-0.00396942	0
52761.1	0.00868884	-0.00395478	0
52801.1	0.00870793	-0.00396376	0
52841.1	0.00865066	-0.00394606	0
52844.8	0.00868884	-0.00393359	0