File: EXPERIMENTAL/Data/Battery-cycling/JP-measurements/T-cell/2024-04-25_JP-A1-02_T-cell_Li-Cu_1-mm-PP-spacer_75muL-4MLiFSI-DME_inside-glovebox_added-OCV-0.1s_04_CP_C05.txt
time/s	Ewe/V	I/mA	error
97709.9	0.011711	-0.0194649	0
97709.9	0.00408466	-0.0195897	0
97709.9	0.00135263	-0.019591	0
97709.9	-0.00132209	-0.0195897	0
97709.9	-0.00346187	-0.0195929	0
97709.9	-0.00554433	-0.0196005	0
97709.9	-0.00768411	-0.0195878	0
97709.9	-0.00999583	-0.0195891	0
97709.9	-0.0121547	-0.0195846	0
97709.9	-0.0142754	-0.0195846	0
97709.9	-0.0164152	-0.019591	0
97709.9	-0.0185358	-0.0195833	0
97709.9	-0.0206183	-0.0195884	0
97709.9	-0.0226816	-0.0195922	0
97709.9	-0.0249169	-0.0195891	0
97709.9	-0.0269612	-0.0195865	0
97709.9	-0.0290246	-0.0195961	0
97709.9	-0.0311834	-0.0195903	0
97710	-0.0333423	-0.0195859	0
97710	-0.0354821	-0.0195903	0
97710	-0.0375454	-0.019584	0
97710	-0.0398763	-0.0195903	0
97710	-0.0419205	-0.0195935	0
97710	-0.0440412	-0.0195897	0
97710	-0.0462001	-0.0195929	0
97710	-0.0482443	-0.0195935	0
97710.1	-0.0502886	-0.0195891	0
97710.1	-0.052371	-0.0195846	0
97710.1	-0.0546254	-0.0195865	0
97710.1	-0.056727	-0.0195827	0
97710.1	-0.0588095	-0.019584	0
97710.1	-0.0608919	-0.019584	0
97710.2	-0.0629744	-0.0195891	0
97710.2	-0.0650378	-0.0195846	0
97710.2	-0.067082	-0.0195935	0
97710.2	-0.0691262	-0.0195878	0
97710.2	-0.0712278	-0.0195884	0
97710.3	-0.0733103	-0.0195897	0
97710.3	-0.0753545	-0.019591	0
97710.3	-0.0773988	-0.0195884	0
97710.4	-0.0794621	-0.0195833	0
97710.4	-0.0815828	-0.0195903	0
97710.4	-0.0836653	-0.0195859	0
97710.4	-0.0857286	-0.0195897	0
97710.5	-0.0878111	-0.0195884	0
97710.5	-0.0899509	-0.0195801	0
97710.6	-0.0920715	-0.0195897	0
97710.6	-0.0941349	-0.0195884	0
97710.6	-0.0962173	-0.0195821	0
97710.7	-0.0983189	-0.0195903	0
97710.7	-0.10044	-0.0195891	0
97710.8	-0.102503	-0.019591	0
97710.8	-0.104643	-0.0195903	0
97710.9	-0.106706	-0.0195935	0
97710.9	-0.108731	-0.0195852	0
97711	-0.110814	-0.0195884	0
97711.1	-0.113011	-0.0195903	0
97711.1	-0.115074	-0.0195782	0
97711.2	-0.117099	-0.0195871	0
97711.3	-0.119144	-0.0195871	0
97711.4	-0.121188	-0.0195948	0
97711.5	-0.123251	-0.0195852	0
97712	-0.123156	-0.0195846	0
97712.2	-0.12113	-0.0195891	0
97712.3	-0.119105	-0.0195884	0
97712.4	-0.116966	-0.0195871	0
97712.4	-0.114921	-0.0195922	0
97712.5	-0.11282	-0.0195948	0
97712.6	-0.110642	-0.0195903	0
97712.7	-0.108597	-0.0195878	0
97712.7	-0.106534	-0.0195827	0
97712.8	-0.104471	-0.0195891	0
97712.9	-0.102407	-0.0195935	0
97712.9	-0.100363	-0.019584	0
97713	-0.0981661	-0.0195916	0
97713.1	-0.0960263	-0.0195967	0
97713.2	-0.093982	-0.0195903	0
97713.3	-0.0919187	-0.0195942	0
97713.4	-0.0898935	-0.0195954	0
97713.5	-0.0878493	-0.0195852	0
97713.6	-0.085805	-0.019584	0
97713.7	-0.0836844	-0.0195878	0
97713.8	-0.0815446	-0.0195859	0
97713.9	-0.0794239	-0.0195935	0
97714.1	-0.0773797	-0.0195891	0
97714.2	-0.0753545	-0.0195859	0
97714.4	-0.0732721	-0.0195929	0
97714.6	-0.0711896	-0.0195891	0
97714.8	-0.0691454	-0.0195782	0
97715.1	-0.0670629	-0.0195878	0
97715.3	-0.0649804	-0.0195859	0
97715.7	-0.0628598	-0.0195871	0
97716.1	-0.0607391	-0.0195897	0
97716.6	-0.0586375	-0.0195948	0
97717.2	-0.0566124	-0.0195884	0
97717.9	-0.0545681	-0.0195865	0
97719	-0.0524857	-0.0195948	0
97720.4	-0.0503268	-0.0195859	0
97722.6	-0.0482825	-0.0195865	0
97725.9	-0.0462574	-0.0195942	0
97731.4	-0.044194	-0.0195929	0
97739.9	-0.0421689	-0.0195891	0
97753.2	-0.0401437	-0.0195891	0
97768.9	-0.0380995	-0.0195833	0
97788	-0.0360552	-0.0195891	0
97807.5	-0.0344122	-0.0195884	0
97827.5	-0.0333805	-0.0195859	0
97847.5	-0.0325208	-0.019591	0
97867.5	-0.0321005	-0.0195846	0
97887.5	-0.0316611	-0.0195897	0
97907.5	-0.0313172	-0.0195884	0
97927.5	-0.0309351	-0.0195884	0
97947.5	-0.0307631	-0.0195922	0
97967.5	-0.030553	-0.019598	0
97987.5	-0.0304192	-0.0195891	0
98007.5	-0.0303237	-0.0195871	0
98027.5	-0.0303428	-0.0195961	0
98047.5	-0.0302282	-0.0195865	0
98067.5	-0.0301327	-0.0195884	0
98087.5	-0.0301327	-0.0195942	0
98107.5	-0.0299798	-0.0195935	0
98127.5	-0.0299034	-0.019584	0
98147.5	-0.0298079	-0.0195865	0
98167.5	-0.0296932	-0.0195961	0
98187.5	-0.029655	-0.0195929	0
98207.5	-0.0296932	-0.019591	0
98227.5	-0.0295786	-0.0195935	0
98247.5	-0.0296741	-0.0195903	0
98267.5	-0.0297505	-0.0195967	0
98287.5	-0.0296168	-0.0195878	0
98307.5	-0.029655	-0.0195878	0
98327.5	-0.0296741	-0.0195897	0
98347.5	-0.0295404	-0.0195903	0
98367.5	-0.0295595	-0.0195897	0
98387.5	-0.0295786	-0.0195897	0
98407.5	-0.0294449	-0.0195891	0
98427.5	-0.029464	-0.0195878	0
98447.5	-0.029464	-0.0195986	0
98467.5	-0.029464	-0.0195871	0
98487.5	-0.0293684	-0.0195878	0
98507.5	-0.0293493	-0.0195852	0
98527.5	-0.0293684	-0.019591	0
98547.5	-0.0294449	-0.0195942	0
98567.5	-0.0294258	-0.0195871	0
98587.5	-0.0293302	-0.0195891	0
98607.5	-0.0294449	-0.0195897	0
98627.5	-0.0292538	-0.0195967	0
98647.5	-0.0292729	-0.0195891	0
98667.5	-0.0293684	-0.0195891	0
98687.5	-0.0292156	-0.0195935	0
98707.5	-0.0293493	-0.0195942	0
98727.5	-0.0292156	-0.0195903	0
98747.5	-0.0292347	-0.019584	0
98767.5	-0.0291392	-0.0195852	0
98787.5	-0.0291392	-0.0195897	0
98807.5	-0.0292156	-0.0195999	0
98827.5	-0.0292347	-0.0195935	0
98847.5	-0.0291583	-0.0195897	0
98867.5	-0.0291201	-0.0195878	0
98887.5	-0.0291965	-0.0195929	0
98907.5	-0.0290819	-0.0195878	0
98927.5	-0.0290437	-0.0195865	0
98947.5	-0.0290628	-0.019591	0
98967.5	-0.0291201	-0.0195852	0
98987.5	-0.0291201	-0.0195935	0
99007.5	-0.0290628	-0.0195948	0
99027.5	-0.0290628	-0.0195929	0
99047.5	-0.0290819	-0.0195967	0
99067.5	-0.0289672	-0.0195942	0
99087.5	-0.028929	-0.0195903	0
99107.5	-0.0289672	-0.0195935	0
99127.5	-0.0290628	-0.0195891	0
99147.5	-0.0290246	-0.0195999	0
99167.5	-0.0289863	-0.0195935	0
99187.5	-0.0288335	-0.0195948	0
99207.5	-0.0288717	-0.0195891	0
99227.5	-0.0290246	-0.0195954	0
99247.5	-0.0288526	-0.0195878	0
99267.5	-0.0287953	-0.0195916	0
99287.5	-0.0289481	-0.0195884	0
99307.5	-0.0287953	-0.0195859	0
99327.5	-0.0287762	-0.0195916	0
99347.5	-0.028929	-0.0195846	0
99367.5	-0.0288144	-0.0195967	0
99387.5	-0.0286998	-0.0195884	0
99407.5	-0.0288526	-0.0195929	0
99427.5	-0.0287189	-0.0195948	0
99447.5	-0.0287762	-0.0195878	0
99467.5	-0.0288526	-0.0195916	0
99487.5	-0.028738	-0.0195942	0
99507.5	-0.0288144	-0.0195967	0
99527.5	-0.0286998	-0.0195929	0
99547.5	-0.028738	-0.0195935	0
99567.5	-0.0286998	-0.019591	0
99587.5	-0.0286807	-0.0195903	0
99607.5	-0.0286998	-0.0195846	0
99627.5	-0.0286233	-0.0195871	0
99647.5	-0.0286233	-0.0195852	0
99667.5	-0.0286042	-0.0195961	0
99687.5	-0.0285278	-0.0195922	0
99707.5	-0.0286424	-0.0195878	0
99727.5	-0.0285278	-0.0195954	0
99747.5	-0.0284705	-0.0195903	0
99767.5	-0.0284323	-0.0195954	0
99787.5	-0.0285087	-0.0195935	0
99807.5	-0.0285469	-0.019591	0
99827.5	-0.0284705	-0.0195935	0
99847.5	-0.0285278	-0.0195903	0
99867.5	-0.0284896	-0.0195852	0
99887.5	-0.0285469	-0.0195897	0
99907.5	-0.0284514	-0.0195903	0
99927.5	-0.0284323	-0.0195942	0
99947.5	-0.0285469	-0.0195903	0
99967.5	-0.0284514	-0.0195891	0
99987.5	-0.0284132	-0.0195884	0
100008	-0.0284896	-0.019591	0
100028	-0.028375	-0.0195871	0
100048	-0.0284514	-0.019591	0
100068	-0.0283941	-0.0195846	0
100088	-0.028375	-0.0195942	0
100108	-0.0282795	-0.0195871	0
100128	-0.028375	-0.0195935	0
100148	-0.028375	-0.0195922	0
100168	-0.0284132	-0.0195916	0
100188	-0.028375	-0.0195903	0
100208	-0.0284896	-0.0195935	0
100228	-0.0282986	-0.0195897	0
100248	-0.0282986	-0.0195884	0
100268	-0.0284132	-0.0195948	0
100288	-0.0282986	-0.0195903	0
100308	-0.0283368	-0.0195846	0
100328	-0.0281648	-0.0195865	0
100348	-0.0282986	-0.0195897	0
100368	-0.0283368	-0.019591	0
100388	-0.0282412	-0.0195852	0
100408	-0.0282221	-0.0195942	0
100428	-0.0281839	-0.0195859	0
100448	-0.0282795	-0.0195922	0
100468	-0.0281839	-0.0195897	0
100488	-0.0281648	-0.0195827	0
100508	-0.0280693	-0.019598	0
100528	-0.0281457	-0.0195871	0
100548	-0.0281648	-0.0195929	0
100568	-0.0280693	-0.019598	0
100588	-0.0280884	-0.0195948	0
100608	-0.0281266	-0.0195878	0
100628	-0.0280884	-0.0195929	0
100648	-0.0280502	-0.0195954	0
100668	-0.0281457	-0.0195897	0
100688	-0.0281075	-0.0195929	0
100708	-0.0280884	-0.0195859	0
100728	-0.0280311	-0.0195948	0
100748	-0.0279929	-0.0195922	0
100768	-0.0281648	-0.0195897	0
100788	-0.028012	-0.0195871	0
100808	-0.0280311	-0.0195935	0
100828	-0.0279738	-0.0195891	0
100848	-0.0280502	-0.019591	0
100868	-0.0279165	-0.0195954	0
100888	-0.0281075	-0.019584	0
100908	-0.0280311	-0.0195929	0
100928	-0.0279929	-0.019598	0
100948	-0.0279547	-0.0195878	0
100968	-0.0280502	-0.019591	0
100988	-0.0279929	-0.0195878	0
101008	-0.0279929	-0.0195884	0
101028	-0.0279929	-0.0195891	0
101048	-0.0279547	-0.0195929	0
101068	-0.0278973	-0.0195948	0
101088	-0.0279547	-0.0195871	0
101108	-0.0278782	-0.0195897	0
101128	-0.0279356	-0.0195935	0
101148	-0.0279547	-0.0195878	0
101168	-0.0279165	-0.0195891	0
101188	-0.028012	-0.0195884	0
101208	-0.0278973	-0.0195935	0
101228	-0.0279356	-0.0195897	0
101248	-0.0278209	-0.019591	0
101268	-0.0278591	-0.0195929	0
101288	-0.0278973	-0.0195891	0
101308	-0.02784	-0.0195884	0
101328	-0.0277636	-0.0195929	0
101348	-0.0278591	-0.0195846	0
101368	-0.0278591	-0.0195922	0
101388	-0.0278209	-0.0195852	0
101408	-0.0279165	-0.0195846	0
101428	-0.0278209	-0.0195916	0
101448	-0.0279356	-0.0195871	0
101468	-0.0278018	-0.0195935	0
101488	-0.0279738	-0.0195903	0
101508	-0.0278209	-0.0195884	0
101528	-0.0278973	-0.0195929	0
101548	-0.0277636	-0.0195903	0
101568	-0.0277636	-0.0195884	0
101588	-0.0277636	-0.0195942	0
101608	-0.0279929	-0.0195871	0
101628	-0.0278209	-0.0195929	0
101648	-0.0277827	-0.0195903	0
101668	-0.0278209	-0.0195852	0
101688	-0.02784	-0.0195865	0
101708	-0.0277827	-0.0195884	0
101728	-0.0278973	-0.0195897	0
101748	-0.027649	-0.0195903	0
101768	-0.0277827	-0.019591	0
101788	-0.0278018	-0.0195884	0
101808	-0.0278591	-0.0195903	0
101828	-0.0278018	-0.0195961	0
101848	-0.0278018	-0.0195922	0
101868	-0.0277827	-0.0195897	0
101888	-0.0277827	-0.0195935	0
101908	-0.0278209	-0.0195871	0
101928	-0.0278018	-0.0195884	0
101948	-0.0277827	-0.0195859	0
101968	-0.0276872	-0.0195973	0
101988	-0.0278018	-0.0195961	0
102008	-0.0275535	-0.0195903	0
102028	-0.0277445	-0.0195884	0
102048	-0.02784	-0.0195871	0
102068	-0.0277827	-0.0195884	0
102088	-0.0277063	-0.0195973	0
102108	-0.0278018	-0.0195871	0
102128	-0.0277636	-0.0195942	0
102148	-0.0277827	-0.0195884	0
102168	-0.0277827	-0.019591	0
102188	-0.0278018	-0.0195878	0
102208	-0.0279356	-0.019591	0
102228	-0.0277827	-0.0195916	0
102248	-0.0277445	-0.0195992	0
102268	-0.0277254	-0.0195961	0
102288	-0.0277445	-0.0195897	0
102308	-0.0277445	-0.0195891	0
102328	-0.0276872	-0.0195935	0
102348	-0.0278018	-0.019591	0
102368	-0.0278209	-0.0195929	0
102388	-0.0275535	-0.019591	0
102408	-0.0277636	-0.0195942	0
102428	-0.0276299	-0.0195884	0
102448	-0.027649	-0.0195948	0
102468	-0.0276108	-0.0195859	0
102488	-0.0277445	-0.0195942	0
102508	-0.0277445	-0.0195833	0
102528	-0.0277063	-0.019591	0
102548	-0.0277636	-0.0195884	0
102568	-0.027649	-0.0195948	0
102588	-0.0277063	-0.019591	0
102608	-0.0277063	-0.0195948	0
102628	-0.0276872	-0.0195922	0
102648	-0.0277636	-0.0195827	0
102668	-0.0276681	-0.0195897	0
102688	-0.0277445	-0.0195992	0
102708	-0.0276681	-0.0195884	0
102728	-0.0276681	-0.0195954	0
102748	-0.0277063	-0.0195903	0
102768	-0.0276681	-0.0195865	0
102788	-0.0275917	-0.0195884	0
102808	-0.0276681	-0.019598	0
102828	-0.0276299	-0.0195935	0
102848	-0.0276872	-0.0195859	0
102868	-0.0275726	-0.0195865	0
102888	-0.0276872	-0.0195916	0
102908	-0.0276299	-0.0195954	0
102928	-0.0277254	-0.019598	0
102948	-0.0276872	-0.0195903	0
102968	-0.0276108	-0.0195986	0
102988	-0.0277254	-0.0195916	0
103008	-0.0277445	-0.0195961	0
103028	-0.027649	-0.0195922	0
103048	-0.0276681	-0.0195897	0
103068	-0.02784	-0.0195922	0
103088	-0.0276108	-0.0195903	0
103108	-0.027649	-0.019584	0
103128	-0.0275152	-0.0195846	0
103148	-0.0276681	-0.0195929	0
103168	-0.0277445	-0.019591	0
103188	-0.0277254	-0.0195846	0
103208	-0.0276681	-0.0195986	0
103228	-0.027649	-0.0195922	0
103248	-0.0276299	-0.0195884	0
103268	-0.0278018	-0.0195948	0
103288	-0.0275344	-0.0195986	0
103308	-0.0276872	-0.0195846	0
103328	-0.0276108	-0.0195942	0
103348	-0.0276681	-0.0195871	0
103368	-0.0276872	-0.0195903	0
103388	-0.0277636	-0.0196018	0
103408	-0.0277445	-0.0195865	0
103428	-0.0277254	-0.0195891	0
103448	-0.0276872	-0.0195935	0
103468	-0.0277063	-0.019598	0
103488	-0.027649	-0.0195903	0
103508	-0.0277254	-0.0195935	0
103528	-0.0276872	-0.0195897	0
103548	-0.0276681	-0.0195871	0
103568	-0.0276872	-0.0195891	0
103588	-0.0276108	-0.0195916	0
103608	-0.027649	-0.0195922	0
103628	-0.027649	-0.0195999	0
103648	-0.0277063	-0.0195922	0
103668	-0.0276681	-0.0195999	0
103688	-0.0277254	-0.0195916	0
103708	-0.0277063	-0.0195852	0
103728	-0.0276681	-0.0195992	0
103748	-0.027649	-0.0195878	0
103768	-0.0276299	-0.0195948	0
103788	-0.0277063	-0.0195954	0
103808	-0.0275535	-0.0195878	0
103828	-0.0277445	-0.0195878	0
103848	-0.0275917	-0.0195916	0
103868	-0.0277254	-0.0195929	0
103888	-0.027649	-0.0195871	0
103908	-0.0278018	-0.019591	0
103928	-0.0277063	-0.0195961	0
103948	-0.0277827	-0.0195891	0
103968	-0.0277445	-0.0195929	0
103988	-0.0275917	-0.0195935	0
104008	-0.0278018	-0.0195922	0
104028	-0.0277827	-0.0195846	0
104048	-0.0276872	-0.0195859	0
104068	-0.0277827	-0.0195916	0
104088	-0.027649	-0.0195942	0
104108	-0.0277063	-0.0195871	0
104128	-0.0276872	-0.0195929	0
104148	-0.0276681	-0.0195884	0
104168	-0.0277063	-0.0195891	0
104188	-0.0277827	-0.0195891	0
104208	-0.0277445	-0.0195948	0
104228	-0.0276108	-0.0195922	0
104248	-0.0277445	-0.0195935	0
104268	-0.0277827	-0.0195929	0
104288	-0.027649	-0.019584	0
104308	-0.0278209	-0.0195903	0
104328	-0.0278209	-0.019584	0
104348	-0.0277063	-0.0195973	0
104368	-0.0277445	-0.019591	0
104388	-0.0278591	-0.0195827	0
104408	-0.0276108	-0.019591	0
104428	-0.0275917	-0.0195878	0
104448	-0.027649	-0.0195859	0
104468	-0.0277827	-0.019591	0
104488	-0.0275535	-0.0195897	0
104508	-0.0275152	-0.0195916	0
104528	-0.0277636	-0.0195903	0
104548	-0.0277254	-0.0195954	0
104568	-0.027649	-0.0195942	0
104588	-0.0275917	-0.0195871	0
104608	-0.027649	-0.0195967	0
104628	-0.0276681	-0.019598	0
104648	-0.027649	-0.0195878	0
104668	-0.0275726	-0.0195801	0
104688	-0.0276872	-0.0195929	0
104708	-0.0276299	-0.0195871	0
104728	-0.027649	-0.019591	0
104748	-0.0277445	-0.0195935	0
104768	-0.0277063	-0.0195891	0
104788	-0.0277063	-0.0195891	0
104808	-0.0277636	-0.0195929	0
104828	-0.0278018	-0.0195922	0
104848	-0.0275726	-0.0195884	0
104868	-0.0276872	-0.0195916	0
104888	-0.0276681	-0.0195916	0
104908	-0.0277254	-0.0195852	0
104928	-0.0277636	-0.0195865	0
104948	-0.0277063	-0.0195884	0
104968	-0.0276108	-0.0195954	0
104988	-0.0277063	-0.0195922	0
105008	-0.0277827	-0.0195884	0
105028	-0.0276299	-0.0195922	0
105048	-0.0277827	-0.0195916	0
105068	-0.0276681	-0.0195954	0
105088	-0.027649	-0.0195903	0
105108	-0.027649	-0.0195929	0
105128	-0.027649	-0.0195891	0
105148	-0.027649	-0.0195903	0
105168	-0.0277254	-0.0195827	0
105188	-0.0276681	-0.0195903	0
105208	-0.0276299	-0.0195948	0
105228	-0.0277254	-0.0195865	0
105248	-0.0277445	-0.019598	0
105268	-0.0277827	-0.0196031	0
105288	-0.0276872	-0.0195897	0
105308	-0.0277254	-0.0195935	0
105328	-0.0276108	-0.0195897	0
105348	-0.0278018	-0.0195929	0
105368	-0.0276872	-0.0195897	0
105388	-0.0277827	-0.0195948	0
105408	-0.0277254	-0.0195916	0
105428	-0.0278591	-0.0195884	0
105448	-0.0276299	-0.0196005	0
105468	-0.027649	-0.0195859	0
105488	-0.0277636	-0.0195897	0
105508	-0.0275535	-0.0195992	0
105528	-0.0276681	-0.0195916	0
105548	-0.0276681	-0.0195859	0
105568	-0.0277827	-0.0195935	0
105588	-0.0276299	-0.0195891	0
105608	-0.027649	-0.0195891	0
105628	-0.0275726	-0.0195948	0
105648	-0.0275917	-0.0195897	0
105668	-0.027649	-0.0195897	0
105688	-0.0276681	-0.0195878	0
105708	-0.0276681	-0.0195878	0
105728	-0.0276872	-0.0195897	0
105748	-0.027649	-0.0195891	0
105768	-0.027649	-0.019591	0
105788	-0.0277063	-0.0195922	0
105808	-0.0275344	-0.0195884	0
105828	-0.027649	-0.019591	0
105848	-0.0277254	-0.0195903	0
105868	-0.0277063	-0.0195935	0
105888	-0.027649	-0.0195929	0
105908	-0.0277445	-0.0195865	0
105928	-0.0277636	-0.0195897	0
105948	-0.0277063	-0.0195954	0
105968	-0.027649	-0.0195891	0
105988	-0.0278018	-0.0195871	0
106008	-0.0277827	-0.0195922	0
106028	-0.0275344	-0.0195859	0
106048	-0.0275917	-0.0196005	0
106068	-0.0277063	-0.0195903	0
106088	-0.0277445	-0.0195903	0
106108	-0.0277636	-0.0195961	0
106128	-0.0277063	-0.019591	0
106148	-0.0278209	-0.0195897	0
106168	-0.0275917	-0.0195961	0
106188	-0.0276872	-0.0195948	0
106208	-0.0276681	-0.0195929	0
106228	-0.0277063	-0.0195859	0
106248	-0.02784	-0.0195871	0
106268	-0.0276681	-0.0195852	0
106288	-0.027649	-0.0195922	0
106308	-0.0276681	-0.0195935	0
106328	-0.0277827	-0.0195891	0
106348	-0.0277445	-0.0195897	0
106368	-0.0276681	-0.0195973	0
106388	-0.0276872	-0.0195973	0
106408	-0.0277254	-0.0195871	0
106428	-0.0277636	-0.0195884	0
106448	-0.0278591	-0.0195897	0
106468	-0.0277445	-0.0195916	0
106488	-0.0277636	-0.0195891	0
106508	-0.0277445	-0.0195865	0
106528	-0.027649	-0.0195916	0
106548	-0.02784	-0.0195948	0
106568	-0.0276108	-0.0195954	0
106588	-0.0276681	-0.0195948	0
106608	-0.0277063	-0.0195865	0
106628	-0.0276872	-0.0195903	0
106648	-0.0277254	-0.0195948	0
106668	-0.0277063	-0.0195922	0
106688	-0.0277636	-0.0195903	0
106708	-0.0277445	-0.0195878	0
106728	-0.0276872	-0.0195935	0
106748	-0.0278018	-0.0195903	0
106768	-0.0277254	-0.0195903	0
106788	-0.0277636	-0.0195878	0
106808	-0.0277254	-0.0195922	0
106828	-0.0277827	-0.0195922	0
106848	-0.0277636	-0.0195859	0
106868	-0.0277063	-0.0195897	0
106888	-0.0277254	-0.0195878	0
106908	-0.027649	-0.0195808	0
106928	-0.0276872	-0.0195903	0
106948	-0.0277445	-0.0195897	0
106968	-0.0277445	-0.0195897	0
106988	-0.0277445	-0.0195903	0
107008	-0.0277445	-0.0195948	0
107028	-0.0276108	-0.0195929	0
107048	-0.0276299	-0.0195948	0
107068	-0.0277636	-0.0195865	0
107088	-0.0278591	-0.0195903	0
107108	-0.0276299	-0.0195846	0
107128	-0.0278018	-0.019584	0
107148	-0.0277827	-0.019591	0
107168	-0.02784	-0.0195916	0
107188	-0.0276299	-0.0195916	0
107208	-0.027649	-0.0195961	0
107228	-0.0276299	-0.0195942	0
107248	-0.0277254	-0.0195916	0
107268	-0.0276681	-0.0195922	0
107288	-0.0277827	-0.0195871	0
107308	-0.0277636	-0.0196024	0
107328	-0.0277254	-0.0195967	0
107348	-0.0277827	-0.0195891	0
107368	-0.0276872	-0.0195903	0
107388	-0.0278018	-0.0195967	0
107408	-0.0277445	-0.0195922	0
107428	-0.0277254	-0.0195903	0
107448	-0.02784	-0.0195922	0
107468	-0.0277636	-0.019591	0
107488	-0.0277445	-0.0195942	0
107508	-0.0278018	-0.0195935	0
107528	-0.0278209	-0.019598	0
107548	-0.0277254	-0.019591	0
107568	-0.0276872	-0.0195935	0
107588	-0.0276872	-0.0195878	0
107608	-0.0277827	-0.0195884	0
107628	-0.0278018	-0.0195903	0
107648	-0.0276872	-0.0195954	0
107668	-0.0278209	-0.0195878	0
107688	-0.0277636	-0.0195916	0
107708	-0.0277827	-0.0195891	0
107728	-0.0276299	-0.0195948	0
107748	-0.0278018	-0.0195897	0
107768	-0.0278018	-0.0195948	0
107788	-0.0276681	-0.0195846	0
107808	-0.0277254	-0.0195871	0
107828	-0.0277827	-0.0195942	0
107848	-0.02784	-0.0195878	0
107868	-0.0278591	-0.0195871	0
107888	-0.02784	-0.0195942	0
107908	-0.0278782	-0.0195891	0
107928	-0.0277254	-0.0195846	0
107948	-0.0278782	-0.0195891	0
107968	-0.0279165	-0.0195859	0
107988	-0.0277445	-0.0195891	0
108008	-0.0277827	-0.0195897	0
108028	-0.0278018	-0.0195871	0
108048	-0.0277445	-0.0195897	0
108068	-0.0277636	-0.0195897	0
108088	-0.0278973	-0.0195801	0
108108	-0.0278209	-0.0195961	0
108128	-0.0278209	-0.0195935	0
108148	-0.0279356	-0.0195884	0
108168	-0.0277254	-0.0195954	0
108188	-0.0278782	-0.0195929	0
108208	-0.0278209	-0.0195878	0
108228	-0.0278209	-0.0195903	0
108248	-0.0277827	-0.019591	0
108268	-0.0278782	-0.019591	0
108288	-0.0278209	-0.0195897	0
108308	-0.0278782	-0.0195922	0
108328	-0.0279547	-0.0195935	0
108348	-0.0278018	-0.0195929	0
108368	-0.0278782	-0.019591	0
108388	-0.0276872	-0.0195878	0
108408	-0.0278591	-0.0195916	0
108428	-0.02784	-0.0195884	0
108448	-0.0278209	-0.019598	0
108468	-0.02784	-0.0195884	0
108488	-0.0278591	-0.019591	0
108508	-0.0278591	-0.019584	0
108528	-0.0278782	-0.0195827	0
108548	-0.0278782	-0.0195903	0
108568	-0.0278018	-0.0195891	0
108588	-0.0278591	-0.0195942	0
108608	-0.0278782	-0.0195897	0
108628	-0.0278591	-0.0195897	0
108648	-0.0279547	-0.0195891	0
108668	-0.0278591	-0.0195897	0
108688	-0.0278973	-0.0195916	0
108708	-0.0278591	-0.0195827	0
108728	-0.0279356	-0.0195891	0
108748	-0.0278209	-0.0195961	0
108768	-0.0278782	-0.0195999	0
108788	-0.0278591	-0.0195903	0
108808	-0.0278973	-0.0195865	0
108828	-0.0277827	-0.0195884	0
108848	-0.0277827	-0.0195833	0
108868	-0.0277445	-0.0195871	0
108888	-0.0278782	-0.019591	0
108908	-0.0278782	-0.0195935	0
108928	-0.0278209	-0.0195897	0
108948	-0.0278018	-0.0195903	0
108968	-0.0278782	-0.0195891	0
108988	-0.0278973	-0.0195852	0
109008	-0.0279356	-0.0195999	0
109028	-0.0278209	-0.0195973	0
109048	-0.0278209	-0.0195916	0
109068	-0.0278782	-0.0195961	0
109088	-0.0278591	-0.0195916	0
109108	-0.0279929	-0.0195884	0
109128	-0.0278782	-0.0195935	0
109148	-0.0278018	-0.0195846	0
109168	-0.0278018	-0.0195929	0
109188	-0.0278782	-0.0195833	0
109208	-0.0279165	-0.0195865	0
109228	-0.0278018	-0.0195859	0
109248	-0.02784	-0.0195903	0
109268	-0.0278591	-0.0195935	0
109288	-0.0279929	-0.0195846	0
109308	-0.0278591	-0.0195929	0
109328	-0.0279356	-0.0195821	0
109348	-0.0278209	-0.0195897	0
109368	-0.0278018	-0.0195942	0
109388	-0.0279165	-0.0195878	0
109408	-0.0279547	-0.019598	0
109428	-0.0279165	-0.0195961	0
109448	-0.02784	-0.0195967	0
109468	-0.0277254	-0.019591	0
109488	-0.0278973	-0.0195916	0
109508	-0.0279547	-0.0195935	0
109528	-0.0278973	-0.0195884	0
109548	-0.02784	-0.0195922	0
109568	-0.0277827	-0.0195903	0
109588	-0.0278973	-0.0196031	0
109608	-0.02784	-0.0195871	0
109628	-0.0278973	-0.0195935	0
109648	-0.0278973	-0.0195903	0
109668	-0.0278018	-0.0195814	0
109688	-0.0278591	-0.019584	0
109708	-0.0278018	-0.0195922	0
109728	-0.0279356	-0.0195891	0
109748	-0.0279356	-0.0195935	0
109768	-0.0278018	-0.0195884	0
109788	-0.0278782	-0.0195865	0
109808	-0.02784	-0.0195878	0
109828	-0.0278782	-0.0195942	0
109848	-0.0278973	-0.0195961	0
109868	-0.02784	-0.0195878	0
109888	-0.02784	-0.0195897	0
109908	-0.0279356	-0.0195865	0
109928	-0.0278782	-0.0195929	0
109948	-0.0278973	-0.0195948	0
109968	-0.0277827	-0.0195954	0
109988	-0.0277254	-0.0195916	0
110008	-0.0278591	-0.0195916	0
110028	-0.0279356	-0.019591	0
110048	-0.0278591	-0.0195948	0
110068	-0.0279165	-0.0195961	0
110088	-0.0278973	-0.0195884	0
110108	-0.0278782	-0.0195884	0
110128	-0.0278018	-0.0195891	0
110148	-0.0279165	-0.0195929	0
110168	-0.0278973	-0.0195897	0
110188	-0.0279165	-0.0195935	0
110208	-0.0278973	-0.0195903	0
110228	-0.0278591	-0.0195897	0
110248	-0.0277636	-0.0195821	0
110268	-0.0278591	-0.0195897	0
110288	-0.0278973	-0.0195948	0
110308	-0.0278782	-0.019598	0
110328	-0.0279165	-0.0195903	0
110348	-0.0278209	-0.019591	0
110368	-0.0279165	-0.0195967	0
110388	-0.0278591	-0.0195929	0
110408	-0.0279356	-0.0195935	0
110428	-0.0279165	-0.0195916	0
110448	-0.0278782	-0.0195986	0
110468	-0.0278209	-0.0195865	0
110488	-0.0278591	-0.0195935	0
110508	-0.0277827	-0.0195935	0
110528	-0.0278018	-0.0195929	0
110548	-0.0278782	-0.0195954	0
110568	-0.0279165	-0.0195922	0
110588	-0.0279356	-0.0195871	0
110608	-0.0278973	-0.019598	0
110628	-0.0279547	-0.0195897	0
110648	-0.0278209	-0.0195859	0
110668	-0.0278782	-0.0195986	0
110688	-0.0278782	-0.0195897	0
110708	-0.0278209	-0.0195922	0
110728	-0.02784	-0.0195859	0
110748	-0.0278591	-0.0195871	0
110768	-0.0278209	-0.0195922	0
110788	-0.02784	-0.0195903	0
110808	-0.0279356	-0.0195878	0
110828	-0.0279356	-0.0195884	0
110848	-0.0277254	-0.0195884	0
110868	-0.0278591	-0.0195922	0
110888	-0.0277827	-0.0195852	0
110908	-0.0278782	-0.0195986	0
110928	-0.028012	-0.0195897	0
110948	-0.02784	-0.0195967	0
110968	-0.0279929	-0.019591	0
110988	-0.0278018	-0.0195961	0
111008	-0.0279165	-0.0195884	0
111028	-0.0279165	-0.0195897	0
111048	-0.0279929	-0.0195929	0
111068	-0.0278973	-0.0195859	0
111088	-0.0277636	-0.0195942	0
111108	-0.0278209	-0.0195865	0
111128	-0.0279165	-0.0195929	0
111148	-0.0279165	-0.019591	0
111168	-0.0278973	-0.0195878	0
111188	-0.0278782	-0.0195871	0
111208	-0.0278782	-0.0195891	0
111228	-0.0278209	-0.019584	0
111248	-0.0278209	-0.0196005	0
111268	-0.0278209	-0.0195922	0
111288	-0.0278973	-0.0195929	0
111308	-0.0279356	-0.0195922	0
111328	-0.0278591	-0.0195961	0
111348	-0.0279165	-0.0195891	0
111368	-0.0278209	-0.0195961	0
111388	-0.0279356	-0.0195935	0
111408	-0.0279547	-0.0195916	0
111428	-0.0279165	-0.0195922	0
111448	-0.0279165	-0.0195852	0
111468	-0.02784	-0.0195954	0
111488	-0.0279738	-0.0195846	0
111508	-0.0278018	-0.0195859	0
111528	-0.0278973	-0.0195903	0
111548	-0.0280311	-0.0195942	0
111568	-0.0278591	-0.0195929	0
111588	-0.0278782	-0.0195865	0
111608	-0.02784	-0.0195916	0
111628	-0.0278591	-0.0195948	0
111648	-0.0278782	-0.0195903	0
111668	-0.0278782	-0.0195935	0
111688	-0.0278782	-0.0195961	0
111708	-0.0278782	-0.0195922	0
111728	-0.0279356	-0.0195903	0
111748	-0.0278018	-0.0195871	0
111768	-0.0278209	-0.0195859	0
111788	-0.0279547	-0.0195942	0
111808	-0.0278209	-0.019591	0
111828	-0.0278973	-0.0195859	0
111848	-0.0278782	-0.0195865	0
111868	-0.0279165	-0.019591	0
111888	-0.0279165	-0.0195999	0
111908	-0.02784	-0.0195992	0
111928	-0.0279738	-0.0195986	0
111948	-0.0279547	-0.0195891	0
111968	-0.0278591	-0.0195859	0
111988	-0.0278591	-0.0195897	0
112008	-0.0279929	-0.0195929	0
112028	-0.0279165	-0.0195916	0
112048	-0.0279547	-0.0196018	0
112068	-0.0279356	-0.0195922	0
112088	-0.028012	-0.0195897	0
112108	-0.0278018	-0.0195948	0
112128	-0.0278591	-0.0195942	0
112148	-0.0279547	-0.0195942	0
112168	-0.0278591	-0.019598	0
112188	-0.0278973	-0.0195954	0
112208	-0.0278018	-0.0195884	0
112228	-0.0278591	-0.0195967	0
112248	-0.0278973	-0.0195942	0
112268	-0.0278018	-0.0195916	0
112288	-0.0278782	-0.0195865	0
112308	-0.0276872	-0.019591	0
112328	-0.0278973	-0.0195891	0
112348	-0.0279738	-0.0195973	0
112368	-0.0278209	-0.019591	0
112388	-0.0278973	-0.0195948	0
112408	-0.02784	-0.0195935	0
112428	-0.0277827	-0.0195903	0
112448	-0.0279356	-0.0195871	0
112468	-0.0278018	-0.0195865	0
112488	-0.0277827	-0.0195942	0
112508	-0.0278209	-0.0195897	0
112528	-0.02784	-0.0195891	0
112548	-0.0278591	-0.0195935	0
112568	-0.0278591	-0.019591	0
112588	-0.0278209	-0.0196012	0
112608	-0.0279165	-0.0195916	0
112628	-0.0277254	-0.019598	0
112648	-0.0279929	-0.0195878	0
112668	-0.0279738	-0.019591	0
112688	-0.0278973	-0.0195865	0
112708	-0.0277827	-0.019584	0
112728	-0.0279356	-0.0195859	0
112748	-0.02784	-0.019591	0
112768	-0.0278209	-0.0195929	0
112788	-0.02784	-0.0195929	0
112808	-0.0278973	-0.0195967	0
112828	-0.02784	-0.0195922	0
112848	-0.0278591	-0.0195833	0
112868	-0.0277445	-0.019591	0
112888	-0.0277445	-0.0195916	0
112908	-0.02784	-0.019598	0
112928	-0.02784	-0.0195897	0
112948	-0.0278018	-0.0195948	0
112968	-0.0278018	-0.0195884	0
112988	-0.02784	-0.0195897	0
113008	-0.0278018	-0.0195903	0
113028	-0.02784	-0.0195897	0
113048	-0.0277445	-0.0195884	0
113068	-0.0278209	-0.019591	0
113088	-0.0277445	-0.0195929	0
113108	-0.0277445	-0.0195891	0
113128	-0.02784	-0.0195903	0
113148	-0.0279165	-0.0195935	0
113168	-0.0278209	-0.0195903	0
113188	-0.0277254	-0.0195865	0
113208	-0.0278973	-0.0195929	0
113228	-0.0277063	-0.019591	0
113248	-0.0277827	-0.0195948	0
113268	-0.0278018	-0.0195967	0
113288	-0.0277827	-0.0195999	0
113308	-0.0277636	-0.0195922	0
113328	-0.0276108	-0.0195903	0
113348	-0.0278018	-0.0195884	0
113368	-0.0277254	-0.0195884	0
113388	-0.0277827	-0.0195865	0
113408	-0.0277063	-0.0195891	0
113428	-0.0278209	-0.0195922	0
113448	-0.02784	-0.0195859	0
113468	-0.0277254	-0.0195935	0
113488	-0.0276872	-0.0195942	0
113508	-0.0277445	-0.0195903	0
113528	-0.0277063	-0.0195846	0
113548	-0.0277063	-0.0195929	0
113568	-0.027649	-0.0195935	0
113588	-0.027649	-0.019584	0
113608	-0.0277063	-0.0195903	0
113628	-0.0278018	-0.019591	0
113648	-0.0275917	-0.0195948	0
113668	-0.0278209	-0.0195942	0
113688	-0.027649	-0.0195973	0
113708	-0.027649	-0.0195903	0
113728	-0.0277636	-0.0195942	0
113748	-0.0278018	-0.0195935	0
113768	-0.0277254	-0.0195916	0
113788	-0.0276681	-0.0195973	0
113808	-0.0277445	-0.019591	0
113828	-0.0277445	-0.019591	0
113848	-0.0277445	-0.0195884	0
113868	-0.0277636	-0.0195903	0
113888	-0.02784	-0.0195852	0
113908	-0.0277445	-0.0195935	0
113928	-0.0278591	-0.0195967	0
113948	-0.0276872	-0.0195878	0
113968	-0.0276299	-0.0195948	0
113988	-0.0277445	-0.0195935	0
114008	-0.0277254	-0.019584	0
114028	-0.0276108	-0.0195942	0
114048	-0.0277254	-0.0195897	0
114068	-0.0275917	-0.019591	0
114088	-0.0275726	-0.0195973	0
114108	-0.0275535	-0.0195878	0
114128	-0.0276872	-0.0195891	0
114148	-0.0276299	-0.0195865	0
114168	-0.027649	-0.0195961	0
114188	-0.0277254	-0.0195903	0
114208	-0.0277063	-0.019591	0
114228	-0.0275917	-0.0195942	0
114248	-0.0275917	-0.0195897	0
114268	-0.0277063	-0.0195999	0
114288	-0.0276299	-0.0195821	0
114308	-0.0275344	-0.0195878	0
114328	-0.0275917	-0.0195935	0
114348	-0.0275917	-0.0195884	0
114368	-0.027649	-0.0196005	0
114388	-0.0275344	-0.0195935	0
114408	-0.0275535	-0.019591	0
114428	-0.027477	-0.0196012	0
114448	-0.0275535	-0.0195935	0
114468	-0.0276108	-0.019591	0
114488	-0.0275726	-0.0195967	0
114508	-0.0275344	-0.0195916	0
114528	-0.0276108	-0.0195897	0
114548	-0.0275726	-0.0195999	0
114568	-0.0275152	-0.0195865	0
114588	-0.0275152	-0.0195859	0
114608	-0.0275535	-0.0195884	0
114628	-0.0275726	-0.0195903	0
114648	-0.0275152	-0.0195922	0
114668	-0.0274006	-0.0195827	0
114688	-0.0276108	-0.0195852	0
114708	-0.0274961	-0.0195916	0
114728	-0.0275152	-0.0195891	0
114748	-0.0275917	-0.019591	0
114768	-0.0276108	-0.0195999	0
114788	-0.0275917	-0.019598	0
114808	-0.0274961	-0.019591	0
114828	-0.0275917	-0.0195891	0
114848	-0.0275917	-0.019591	0
114868	-0.0274197	-0.0195846	0
114888	-0.0275152	-0.0195871	0
114908	-0.0274961	-0.0195878	0
114928	-0.0274388	-0.0195916	0
114948	-0.0275535	-0.0195871	0
114968	-0.0275917	-0.0195852	0
114988	-0.027477	-0.0195897	0
115008	-0.0274388	-0.0195897	0
115028	-0.0274579	-0.0195929	0
115048	-0.0274388	-0.0195891	0
115068	-0.0273815	-0.0195814	0
115088	-0.0275344	-0.0195846	0
115108	-0.0273624	-0.0195935	0
115128	-0.0274961	-0.0195897	0
115148	-0.0275535	-0.019591	0
115168	-0.0274006	-0.0195878	0
115188	-0.0274579	-0.0195929	0
115208	-0.027477	-0.0195891	0
115228	-0.0274388	-0.0195942	0
115248	-0.0274579	-0.0195935	0
115268	-0.0273815	-0.0195878	0
115288	-0.0274006	-0.0195916	0
115308	-0.0274579	-0.0195922	0
115328	-0.0274197	-0.0195954	0
115348	-0.0273815	-0.0195871	0
115368	-0.0273242	-0.0195903	0
115388	-0.0275344	-0.0195821	0
115408	-0.0273624	-0.0195922	0
115428	-0.0272669	-0.0195871	0
115448	-0.0273051	-0.0195865	0
115468	-0.0274006	-0.0195865	0
115488	-0.0273051	-0.0195916	0
115508	-0.0273433	-0.0195986	0
115528	-0.0273624	-0.0195884	0
115548	-0.0274006	-0.0195891	0
115568	-0.0274388	-0.0195935	0
115588	-0.0273242	-0.0195903	0
115608	-0.0274006	-0.0195922	0
115628	-0.0273051	-0.0195903	0
115648	-0.0274006	-0.0195935	0
115668	-0.027286	-0.0195897	0
115688	-0.0272478	-0.019591	0
115708	-0.0273242	-0.0195967	0
115710	-0.0273433	-0.0195871	0